Comment:	20231003 sppedbump
Time	Vehicle Speed	FL Sprung acceleration	FR Sprung acceleration	RL Sprung acceleration	RR Sprung acceleration	FL Unsprung acceleration	FR Unsprung acceleration	RL Unsprung acceleration	RR Unsprung acceleration	Bellow pressure RL	Bellow pressure RR	Acceleration X	Acceleration Y	Acceleration Z
s	km/h	gn	gn	gn	gn	gn	gn	gn	gn	bar	bar	g	g	g
0.000	24.863	-0.070	-0.078	-0.019	0.173	0.771	0.368	0.622	2.260	1.854	1.761	-0.074	0.133	0.024
0.000	24.857	-0.067	-0.079	-0.032	0.155	0.765	0.308	0.617	2.355	1.853	1.760	-0.072	0.134	0.038
0.000	24.872	-0.062	-0.080	-0.047	0.133	0.748	0.276	0.563	2.477	1.852	1.759	-0.069	0.137	0.053
0.001	24.844	-0.061	-0.078	-0.055	0.106	0.743	0.289	0.511	2.566	1.852	1.753	-0.065	0.140	0.070
0.001	24.860	-0.057	-0.076	-0.061	0.077	0.741	0.317	0.526	2.598	1.857	1.760	-0.059	0.141	0.085
0.001	24.869	-0.054	-0.076	-0.068	0.049	0.741	0.375	0.581	2.546	1.863	1.766	-0.054	0.143	0.103
0.001	24.869	-0.053	-0.075	-0.067	0.021	0.754	0.350	0.654	2.450	1.865	1.762	-0.045	0.147	0.118
0.001	24.869	-0.051	-0.074	-0.071	-0.005	0.783	0.305	0.710	2.332	1.859	1.763	-0.038	0.150	0.133
0.002	24.875	-0.047	-0.073	-0.069	-0.027	0.797	0.268	0.668	2.286	1.854	1.764	-0.029	0.156	0.147
0.002	24.878	-0.046	-0.072	-0.065	-0.043	0.822	0.218	0.599	2.345	1.856	1.775	-0.018	0.159	0.159
0.002	24.872	-0.040	-0.071	-0.060	-0.055	0.845	0.175	0.450	2.409	1.870	1.769	-0.008	0.162	0.170
0.002	24.881	-0.039	-0.071	-0.051	-0.060	0.851	0.168	0.369	2.498	1.868	1.772	0.001	0.166	0.178
0.002	24.881	-0.038	-0.066	-0.042	-0.057	0.849	0.189	0.347	2.464	1.875	1.776	0.014	0.169	0.184
0.003	24.869	-0.037	-0.066	-0.027	-0.049	0.875	0.218	0.416	2.375	1.870	1.769	0.022	0.171	0.191
0.003	24.884	-0.036	-0.064	-0.013	-0.033	0.852	0.221	0.524	2.279	1.868	1.779	0.032	0.172	0.191
0.003	24.869	-0.036	-0.061	0.006	-0.011	0.865	0.244	0.593	2.217	1.863	1.776	0.041	0.172	0.190
0.003	24.875	-0.036	-0.061	0.025	0.016	0.875	0.197	0.590	2.234	1.862	1.767	0.049	0.169	0.188
0.003	24.890	-0.035	-0.062	0.045	0.048	0.899	0.179	0.486	2.317	1.865	1.787	0.055	0.164	0.182
0.004	24.875	-0.036	-0.063	0.065	0.085	0.907	0.142	0.377	2.409	1.871	1.782	0.059	0.159	0.174
0.004	24.875	-0.038	-0.063	0.086	0.124	0.954	0.143	0.292	2.461	1.873	1.782	0.064	0.150	0.163
0.004	24.878	-0.039	-0.063	0.105	0.163	0.980	0.143	0.306	2.417	1.868	1.780	0.066	0.141	0.149
0.004	24.866	-0.041	-0.063	0.126	0.198	1.006	0.147	0.403	2.320	1.872	1.787	0.067	0.130	0.134
0.004	24.893	-0.043	-0.063	0.146	0.232	1.026	0.142	0.536	2.205	1.875	1.796	0.067	0.117	0.117
0.005	24.887	-0.045	-0.061	0.164	0.259	1.015	0.137	0.606	2.114	1.877	1.785	0.066	0.105	0.098
0.005	24.869	-0.045	-0.061	0.182	0.282	1.007	0.129	0.580	2.105	1.882	1.785	0.063	0.088	0.078
0.005	24.863	-0.048	-0.060	0.194	0.297	0.994	0.128	0.513	2.128	1.878	1.791	0.060	0.073	0.057
0.005	24.866	-0.049	-0.059	0.206	0.308	0.993	0.128	0.384	2.167	1.871	1.795	0.056	0.058	0.035
0.005	24.872	-0.051	-0.057	0.210	0.314	1.011	0.150	0.328	2.151	1.878	1.795	0.051	0.042	0.015
0.006	24.875	-0.053	-0.055	0.214	0.316	1.026	0.143	0.346	2.063	1.883	1.792	0.045	0.029	-0.010
0.006	24.860	-0.055	-0.053	0.213	0.307	1.046	0.151	0.425	1.919	1.878	1.796	0.038	0.015	-0.029
0.006	24.881	-0.058	-0.053	0.208	0.299	1.050	0.148	0.545	1.828	1.876	1.793	0.030	0.004	-0.048
0.006	24.866	-0.060	-0.049	0.201	0.286	1.040	0.149	0.619	1.777	1.884	1.795	0.023	-0.006	-0.067
0.006	24.854	-0.063	-0.047	0.191	0.270	1.007	0.165	0.583	1.789	1.888	1.802	0.015	-0.016	-0.081
0.007	24.875	-0.065	-0.045	0.180	0.253	0.975	0.181	0.512	1.858	1.888	1.804	0.005	-0.021	-0.096
0.007	24.872	-0.070	-0.043	0.167	0.234	0.943	0.235	0.437	1.907	1.895	1.801	-0.003	-0.023	-0.105
0.007	24.896	-0.070	-0.039	0.151	0.215	0.943	0.271	0.413	1.932	1.889	1.801	-0.013	-0.026	-0.112
0.007	24.869	-0.074	-0.037	0.138	0.197	0.930	0.301	0.441	1.903	1.889	1.802	-0.021	-0.023	-0.115
0.007	24.872	-0.077	-0.034	0.122	0.182	0.916	0.307	0.540	1.817	1.890	1.814	-0.029	-0.021	-0.115
0.008	24.875	-0.080	-0.034	0.104	0.169	0.869	0.275	0.633	1.744	1.892	1.815	-0.039	-0.016	-0.112
0.008	24.875	-0.083	-0.031	0.088	0.157	0.804	0.263	0.683	1.721	1.901	1.805	-0.045	-0.007	-0.106
0.008	24.863	-0.087	-0.028	0.071	0.150	0.753	0.263	0.667	1.749	1.891	1.815	-0.055	0.002	-0.094
0.008	24.887	-0.090	-0.029	0.053	0.145	0.719	0.306	0.642	1.775	1.893	1.820	-0.063	0.014	-0.079
0.008	24.872	-0.093	-0.029	0.035	0.144	0.736	0.374	0.586	1.792	1.895	1.811	-0.069	0.027	-0.062
0.009	24.869	-0.096	-0.028	0.020	0.146	0.763	0.416	0.574	1.777	1.904	1.822	-0.076	0.042	-0.042
0.009	24.872	-0.098	-0.026	0.004	0.151	0.790	0.481	0.608	1.698	1.902	1.818	-0.082	0.057	-0.019
0.009	24.887	-0.103	-0.029	-0.011	0.158	0.800	0.493	0.670	1.639	1.896	1.825	-0.088	0.069	0.004
0.009	24.893	-0.105	-0.030	-0.026	0.168	0.781	0.447	0.715	1.614	1.895	1.828	-0.093	0.085	0.030
0.009	24.875	-0.108	-0.033	-0.036	0.178	0.753	0.424	0.731	1.616	1.893	1.819	-0.097	0.097	0.054
0.010	24.866	-0.108	-0.037	-0.045	0.189	0.746	0.413	0.727	1.649	1.910	1.832	-0.100	0.110	0.079
0.010	24.866	-0.108	-0.038	-0.051	0.201	0.744	0.431	0.713	1.645	1.902	1.827	-0.102	0.119	0.102
0.010	24.869	-0.110	-0.043	-0.054	0.213	0.776	0.489	0.741	1.629	1.905	1.827	-0.104	0.126	0.124
0.010	24.869	-0.112	-0.046	-0.054	0.226	0.776	0.534	0.779	1.590	1.902	1.823	-0.109	0.132	0.143
0.010	24.881	-0.115	-0.049	-0.049	0.238	0.816	0.558	0.834	1.501	1.907	1.831	-0.109	0.135	0.158
0.011	24.866	-0.117	-0.052	-0.041	0.248	0.824	0.519	0.846	1.454	1.907	1.831	-0.110	0.135	0.173
0.011	24.875	-0.118	-0.054	-0.031	0.260	0.846	0.453	0.835	1.446	1.905	1.828	-0.109	0.132	0.183
0.011	24.860	-0.117	-0.057	-0.017	0.271	0.866	0.417	0.756	1.468	1.914	1.838	-0.107	0.127	0.189
0.011	24.878	-0.117	-0.058	0.002	0.283	0.884	0.410	0.665	1.510	1.912	1.833	-0.107	0.120	0.189
0.011	24.869	-0.115	-0.062	0.021	0.292	0.917	0.450	0.615	1.516	1.919	1.843	-0.105	0.111	0.187
0.012	24.857	-0.114	-0.064	0.043	0.303	0.938	0.511	0.595	1.465	1.910	1.837	-0.102	0.099	0.179
0.012	24.860	-0.113	-0.068	0.065	0.310	0.965	0.559	0.643	1.401	1.906	1.844	-0.099	0.087	0.170
0.012	24.863	-0.114	-0.071	0.089	0.319	0.982	0.568	0.663	1.307	1.912	1.847	-0.094	0.072	0.157
0.012	24.863	-0.112	-0.074	0.112	0.324	0.999	0.485	0.694	1.321	1.916	1.836	-0.095	0.056	0.142
0.012	24.841	-0.116	-0.076	0.134	0.325	0.954	0.415	0.647	1.371	1.910	1.844	-0.092	0.044	0.123
0.013	24.863	-0.116	-0.076	0.156	0.323	0.945	0.368	0.579	1.465	1.916	1.847	-0.089	0.031	0.104
0.013	24.860	-0.116	-0.079	0.176	0.317	0.958	0.346	0.510	1.519	1.921	1.849	-0.087	0.017	0.086
0.013	24.866	-0.115	-0.079	0.191	0.306	0.967	0.388	0.471	1.523	1.914	1.850	-0.085	0.005	0.065
0.013	24.860	-0.114	-0.079	0.208	0.294	1.021	0.452	0.517	1.499	1.921	1.852	-0.083	-0.005	0.049
0.013	24.866	-0.114	-0.080	0.217	0.277	1.084	0.484	0.560	1.425	1.925	1.858	-0.081	-0.012	0.032
0.014	24.860	-0.111	-0.078	0.226	0.257	1.163	0.508	0.602	1.361	1.926	1.861	-0.080	-0.016	0.019
0.014	24.847	-0.112	-0.078	0.232	0.237	1.196	0.448	0.591	1.298	1.919	1.856	-0.080	-0.019	0.005
0.014	24.841	-0.109	-0.077	0.233	0.215	1.241	0.397	0.530	1.281	1.928	1.855	-0.080	-0.019	-0.004
0.014	24.872	-0.108	-0.076	0.232	0.193	1.285	0.369	0.466	1.262	1.930	1.864	-0.077	-0.015	-0.010
0.014	24.838	-0.104	-0.072	0.224	0.170	1.314	0.367	0.409	1.235	1.933	1.859	-0.076	-0.009	-0.012
0.015	24.850	-0.101	-0.073	0.217	0.152	1.370	0.438	0.360	1.177	1.932	1.864	-0.077	-0.002	-0.012
0.015	24.866	-0.095	-0.071	0.205	0.132	1.396	0.466	0.363	1.112	1.926	1.871	-0.077	0.009	-0.005
0.015	24.850	-0.093	-0.068	0.191	0.116	1.453	0.510	0.386	1.020	1.935	1.868	-0.076	0.022	0.001
0.015	24.857	-0.091	-0.068	0.173	0.102	1.464	0.500	0.417	0.987	1.935	1.860	-0.077	0.035	0.013
0.015	24.860	-0.086	-0.066	0.155	0.090	1.476	0.474	0.444	0.999	1.930	1.877	-0.077	0.050	0.024
0.016	24.850	-0.082	-0.067	0.136	0.083	1.479	0.437	0.445	1.047	1.939	1.874	-0.079	0.067	0.039
0.016	24.854	-0.080	-0.069	0.114	0.078	1.513	0.413	0.414	1.082	1.937	1.877	-0.081	0.081	0.054
0.016	24.841	-0.077	-0.069	0.096	0.076	1.545	0.431	0.374	1.100	1.941	1.881	-0.082	0.096	0.070
0.016	24.835	-0.074	-0.073	0.079	0.079	1.568	0.469	0.359	1.089	1.944	1.877	-0.085	0.109	0.087
0.016	24.863	-0.074	-0.075	0.062	0.084	1.574	0.526	0.376	1.035	1.942	1.879	-0.086	0.122	0.103
0.017	24.838	-0.070	-0.078	0.047	0.093	1.578	0.534	0.378	0.936	1.945	1.882	-0.089	0.132	0.116
0.017	24.844	-0.068	-0.084	0.036	0.104	1.556	0.508	0.400	0.862	1.938	1.882	-0.092	0.140	0.128
0.017	24.850	-0.065	-0.090	0.027	0.117	1.555	0.470	0.386	0.786	1.957	1.885	-0.095	0.145	0.138
0.017	24.844	-0.060	-0.096	0.022	0.131	1.547	0.447	0.403	0.732	1.944	1.886	-0.098	0.148	0.145
0.017	24.835	-0.059	-0.104	0.022	0.147	1.525	0.436	0.363	0.683	1.949	1.890	-0.103	0.147	0.150
0.018	24.829	-0.057	-0.110	0.023	0.162	1.532	0.478	0.356	0.639	1.956	1.884	-0.107	0.144	0.153
0.018	24.823	-0.056	-0.119	0.027	0.177	1.519	0.530	0.350	0.632	1.955	1.892	-0.113	0.139	0.153
0.018	24.826	-0.051	-0.126	0.036	0.194	1.514	0.592	0.342	0.598	1.948	1.902	-0.118	0.131	0.150
0.018	24.835	-0.048	-0.133	0.046	0.205	1.496	0.616	0.363	0.602	1.951	1.896	-0.122	0.121	0.144
0.018	24.808	-0.045	-0.140	0.058	0.219	1.484	0.633	0.387	0.589	1.958	1.894	-0.128	0.109	0.139
0.019	24.817	-0.046	-0.143	0.074	0.229	1.468	0.638	0.412	0.619	1.955	1.897	-0.131	0.097	0.129
0.019	24.811	-0.042	-0.145	0.088	0.237	1.455	0.614	0.428	0.578	1.960	1.900	-0.136	0.079	0.121
0.019	24.811	-0.043	-0.147	0.100	0.245	1.456	0.620	0.427	0.578	1.964	1.890	-0.139	0.067	0.110
0.019	24.802	-0.041	-0.148	0.118	0.250	1.456	0.644	0.453	0.561	1.964	1.904	-0.143	0.051	0.099
0.019	24.811	-0.040	-0.147	0.130	0.254	1.451	0.690	0.490	0.497	1.968	1.894	-0.146	0.036	0.090
0.020	24.802	-0.040	-0.148	0.141	0.256	1.433	0.727	0.499	0.447	1.963	1.905	-0.149	0.022	0.080
0.020	24.808	-0.042	-0.146	0.150	0.256	1.402	0.746	0.514	0.435	1.972	1.906	-0.152	0.007	0.071
0.020	24.808	-0.039	-0.143	0.159	0.255	1.350	0.729	0.478	0.445	1.971	1.905	-0.152	-0.005	0.063
0.020	24.820	-0.039	-0.140	0.165	0.252	1.321	0.700	0.485	0.502	1.979	1.907	-0.152	-0.016	0.058
0.020	24.814	-0.038	-0.136	0.170	0.250	1.290	0.668	0.454	0.534	1.977	1.903	-0.152	-0.024	0.053
0.021	24.802	-0.035	-0.129	0.175	0.245	1.281	0.659	0.426	0.556	1.979	1.912	-0.151	-0.032	0.049
0.021	24.802	-0.039	-0.124	0.177	0.241	1.258	0.654	0.431	0.537	1.976	1.912	-0.149	-0.038	0.050
0.021	24.808	-0.040	-0.117	0.179	0.237	1.216	0.688	0.438	0.470	1.977	1.915	-0.146	-0.041	0.049
0.021	24.802	-0.042	-0.111	0.182	0.231	1.192	0.703	0.458	0.399	1.977	1.917	-0.142	-0.044	0.052
0.021	24.792	-0.045	-0.105	0.182	0.227	1.165	0.718	0.469	0.335	1.977	1.919	-0.140	-0.044	0.056
0.022	24.792	-0.049	-0.100	0.182	0.222	1.142	0.713	0.458	0.318	1.969	1.910	-0.134	-0.043	0.060
0.022	24.786	-0.049	-0.098	0.183	0.218	1.129	0.681	0.428	0.346	1.975	1.917	-0.132	-0.041	0.068
0.022	24.786	-0.056	-0.098	0.183	0.214	1.096	0.683	0.383	0.393	1.978	1.921	-0.128	-0.037	0.073
0.022	24.805	-0.057	-0.098	0.183	0.210	1.113	0.692	0.353	0.447	1.974	1.920	-0.123	-0.035	0.080
0.022	24.792	-0.059	-0.100	0.182	0.209	1.141	0.715	0.352	0.478	1.986	1.911	-0.119	-0.030	0.090
0.023	24.780	-0.064	-0.100	0.182	0.209	1.122	0.749	0.374	0.463	1.976	1.926	-0.115	-0.026	0.095
0.023	24.796	-0.063	-0.097	0.181	0.209	1.176	0.779	0.404	0.403	1.992	1.925	-0.111	-0.023	0.103
0.023	24.796	-0.069	-0.099	0.180	0.210	1.198	0.776	0.494	0.357	1.990	1.926	-0.108	-0.018	0.110
0.023	24.783	-0.071	-0.095	0.178	0.210	1.205	0.788	0.555	0.318	1.981	1.922	-0.105	-0.015	0.114
0.023	24.771	-0.074	-0.095	0.177	0.213	1.202	0.784	0.554	0.304	1.987	1.925	-0.104	-0.013	0.119
0.024	24.780	-0.075	-0.091	0.172	0.215	1.211	0.789	0.528	0.343	1.985	1.936	-0.102	-0.010	0.122
0.024	24.774	-0.076	-0.093	0.168	0.219	1.208	0.784	0.431	0.369	1.991	1.927	-0.101	-0.010	0.125
0.024	24.777	-0.076	-0.093	0.161	0.222	1.227	0.814	0.400	0.395	1.996	1.931	-0.100	-0.010	0.126
0.024	24.774	-0.079	-0.092	0.152	0.223	1.234	0.816	0.379	0.374	1.985	1.928	-0.101	-0.009	0.127
0.024	24.789	-0.082	-0.095	0.143	0.229	1.240	0.819	0.387	0.277	1.986	1.930	-0.101	-0.012	0.127
0.025	24.777	-0.087	-0.098	0.135	0.231	1.247	0.827	0.423	0.195	1.986	1.932	-0.103	-0.014	0.123
0.025	24.774	-0.089	-0.103	0.126	0.231	1.258	0.828	0.454	0.158	1.990	1.931	-0.104	-0.017	0.120
0.025	24.762	-0.094	-0.106	0.116	0.231	1.258	0.814	0.451	0.131	1.989	1.928	-0.106	-0.019	0.115
0.025	24.780	-0.095	-0.109	0.108	0.230	1.278	0.817	0.412	0.162	1.990	1.933	-0.107	-0.024	0.111
0.025	24.762	-0.097	-0.110	0.100	0.230	1.296	0.793	0.362	0.245	1.992	1.941	-0.107	-0.028	0.106
0.026	24.786	-0.099	-0.112	0.093	0.228	1.326	0.787	0.319	0.281	1.993	1.938	-0.109	-0.032	0.100
0.026	24.771	-0.100	-0.114	0.085	0.225	1.362	0.767	0.312	0.235	1.996	1.937	-0.111	-0.037	0.097
0.026	24.783	-0.102	-0.117	0.079	0.222	1.375	0.760	0.341	0.148	1.997	1.940	-0.111	-0.039	0.091
0.026	24.789	-0.106	-0.117	0.074	0.219	1.410	0.756	0.404	0.062	2.002	1.938	-0.109	-0.043	0.087
0.026	24.786	-0.109	-0.117	0.069	0.216	1.380	0.754	0.448	0.023	2.008	1.940	-0.110	-0.045	0.084
0.027	24.817	-0.113	-0.116	0.063	0.215	1.335	0.740	0.458	0.019	1.998	1.943	-0.108	-0.047	0.081
0.027	24.805	-0.117	-0.115	0.059	0.212	1.294	0.739	0.451	0.069	2.002	1.940	-0.107	-0.049	0.082
0.027	24.799	-0.120	-0.114	0.053	0.214	1.277	0.728	0.460	0.106	2.006	1.939	-0.105	-0.050	0.082
0.027	24.814	-0.122	-0.115	0.047	0.212	1.289	0.716	0.448	0.141	2.007	1.952	-0.103	-0.051	0.083
0.027	24.796	-0.123	-0.115	0.039	0.213	1.311	0.703	0.421	0.131	2.005	1.955	-0.101	-0.050	0.087
0.028	24.823	-0.126	-0.117	0.032	0.215	1.324	0.691	0.435	0.069	2.005	1.949	-0.098	-0.052	0.090
0.028	24.811	-0.127	-0.118	0.025	0.216	1.326	0.686	0.451	0.011	2.008	1.948	-0.095	-0.049	0.096
0.028	24.820	-0.132	-0.118	0.018	0.221	1.310	0.716	0.470	-0.043	2.011	1.957	-0.092	-0.046	0.101
0.028	24.808	-0.134	-0.117	0.012	0.224	1.269	0.712	0.469	-0.086	2.005	1.956	-0.089	-0.047	0.107
0.028	24.808	-0.138	-0.116	0.004	0.231	1.253	0.710	0.462	-0.084	2.003	1.953	-0.086	-0.045	0.116
0.029	24.808	-0.143	-0.117	-0.002	0.237	1.221	0.693	0.446	-0.065	2.002	1.960	-0.082	-0.044	0.123
0.029	24.814	-0.145	-0.117	-0.009	0.244	1.239	0.658	0.399	-0.066	2.003	1.954	-0.081	-0.042	0.130
0.029	24.823	-0.148	-0.118	-0.012	0.250	1.229	0.642	0.350	-0.072	2.003	1.953	-0.079	-0.041	0.137
0.029	24.814	-0.150	-0.122	-0.016	0.259	1.249	0.627	0.312	-0.104	2.013	1.962	-0.078	-0.041	0.143
0.029	24.805	-0.150	-0.121	-0.019	0.266	1.211	0.633	0.335	-0.130	1.998	1.959	-0.077	-0.040	0.150
0.030	24.814	-0.152	-0.125	-0.018	0.273	1.174	0.643	0.375	-0.123	2.013	1.960	-0.075	-0.040	0.154
0.030	24.796	-0.152	-0.126	-0.016	0.280	1.159	0.655	0.379	-0.090	2.006	1.954	-0.074	-0.042	0.157
0.030	24.814	-0.155	-0.130	-0.012	0.286	1.124	0.660	0.372	-0.035	2.000	1.956	-0.075	-0.043	0.162
0.030	24.814	-0.159	-0.131	-0.006	0.289	1.113	0.667	0.346	0.038	1.999	1.972	-0.075	-0.047	0.162
0.030	24.799	-0.163	-0.133	0.002	0.293	1.115	0.658	0.304	0.053	2.021	1.965	-0.075	-0.047	0.163
0.031	24.829	-0.166	-0.135	0.011	0.290	1.124	0.642	0.269	0.033	2.004	1.962	-0.077	-0.050	0.162
0.031	24.820	-0.169	-0.136	0.021	0.287	1.120	0.642	0.264	-0.012	2.004	1.970	-0.076	-0.053	0.159
0.031	24.796	-0.169	-0.136	0.032	0.283	1.115	0.635	0.268	-0.049	2.009	1.969	-0.075	-0.058	0.159
0.031	24.814	-0.169	-0.137	0.042	0.274	1.096	0.637	0.271	-0.092	2.017	1.977	-0.078	-0.060	0.156
0.031	24.808	-0.167	-0.138	0.050	0.263	1.080	0.652	0.293	-0.052	2.004	1.970	-0.077	-0.062	0.153
0.032	24.796	-0.166	-0.138	0.060	0.249	1.084	0.671	0.287	0.012	2.011	1.969	-0.079	-0.064	0.146
0.032	24.811	-0.165	-0.139	0.070	0.230	1.117	0.658	0.315	0.104	2.017	1.971	-0.079	-0.066	0.142
0.032	24.802	-0.164	-0.141	0.075	0.213	1.169	0.651	0.259	0.163	2.013	1.968	-0.080	-0.069	0.138
0.032	24.811	-0.168	-0.140	0.078	0.194	1.205	0.652	0.217	0.148	2.018	1.970	-0.077	-0.069	0.133
0.032	24.805	-0.167	-0.138	0.082	0.173	1.246	0.683	0.174	0.095	2.013	1.972	-0.076	-0.071	0.129
0.033	24.805	-0.169	-0.139	0.085	0.154	1.235	0.712	0.208	0.014	2.016	1.978	-0.078	-0.071	0.127
0.033	24.823	-0.170	-0.138	0.086	0.135	1.214	0.752	0.238	-0.041	2.014	1.975	-0.077	-0.069	0.123
0.033	24.814	-0.165	-0.135	0.087	0.119	1.212	0.757	0.250	-0.070	2.017	1.973	-0.077	-0.069	0.122
0.033	24.823	-0.164	-0.133	0.087	0.105	1.216	0.757	0.234	-0.005	2.011	1.974	-0.077	-0.064	0.122
0.033	24.823	-0.160	-0.131	0.086	0.094	1.251	0.767	0.204	0.053	2.020	1.974	-0.079	-0.063	0.122
0.034	24.823	-0.156	-0.131	0.084	0.088	1.250	0.716	0.142	0.088	2.015	1.980	-0.078	-0.061	0.125
0.034	24.838	-0.155	-0.129	0.081	0.084	1.238	0.730	0.105	0.097	2.026	1.974	-0.077	-0.057	0.128
0.034	24.820	-0.151	-0.131	0.079	0.084	1.229	0.702	0.132	0.050	2.026	1.976	-0.080	-0.054	0.132
0.034	24.820	-0.151	-0.133	0.081	0.088	1.211	0.736	0.196	-0.058	2.025	1.980	-0.080	-0.051	0.137
0.034	24.826	-0.150	-0.135	0.081	0.092	1.197	0.748	0.264	-0.075	2.029	1.972	-0.083	-0.048	0.142
0.035	24.835	-0.147	-0.136	0.084	0.102	1.202	0.767	0.324	-0.046	2.013	1.974	-0.083	-0.045	0.149
0.035	24.844	-0.145	-0.137	0.089	0.114	1.210	0.759	0.335	0.041	2.032	1.983	-0.085	-0.042	0.157
0.035	24.832	-0.141	-0.140	0.096	0.125	1.231	0.736	0.302	0.146	2.033	1.985	-0.087	-0.038	0.165
0.035	24.854	-0.137	-0.141	0.105	0.140	1.249	0.714	0.234	0.201	2.021	1.977	-0.088	-0.036	0.173
0.035	24.841	-0.132	-0.143	0.117	0.152	1.245	0.703	0.203	0.183	2.018	1.977	-0.090	-0.033	0.179
0.036	24.847	-0.131	-0.146	0.129	0.165	1.216	0.703	0.207	0.122	2.037	1.977	-0.091	-0.029	0.188
0.036	24.869	-0.128	-0.144	0.145	0.176	1.188	0.716	0.293	0.039	2.030	1.983	-0.094	-0.028	0.194
0.036	24.863	-0.126	-0.145	0.162	0.186	1.174	0.727	0.348	-0.008	2.029	1.978	-0.094	-0.025	0.202
0.036	24.866	-0.125	-0.144	0.178	0.191	1.169	0.730	0.349	-0.008	2.029	1.980	-0.095	-0.023	0.208
0.036	24.844	-0.123	-0.144	0.197	0.196	1.178	0.724	0.338	0.062	2.027	1.984	-0.096	-0.021	0.212
0.037	24.869	-0.121	-0.144	0.212	0.194	1.196	0.706	0.304	0.140	2.023	1.980	-0.097	-0.018	0.217
0.037	24.893	-0.119	-0.142	0.233	0.196	1.204	0.703	0.272	0.174	2.024	1.983	-0.097	-0.016	0.222
0.037	24.850	-0.114	-0.140	0.252	0.190	1.231	0.718	0.295	0.140	2.029	1.987	-0.097	-0.013	0.223
0.037	24.872	-0.113	-0.140	0.269	0.186	1.236	0.687	0.287	0.031	2.034	1.982	-0.096	-0.012	0.225
0.037	24.872	-0.109	-0.137	0.285	0.178	1.235	0.702	0.363	-0.029	2.039	1.984	-0.094	-0.010	0.225
0.038	24.881	-0.109	-0.136	0.302	0.173	1.229	0.678	0.388	-0.064	2.037	1.983	-0.092	-0.009	0.224
0.038	24.893	-0.108	-0.134	0.313	0.166	1.198	0.663	0.392	-0.027	2.034	1.978	-0.090	-0.007	0.222
0.038	24.866	-0.109	-0.132	0.327	0.162	1.167	0.663	0.354	0.047	2.031	1.984	-0.087	-0.005	0.220
0.038	24.884	-0.109	-0.130	0.332	0.159	1.153	0.665	0.322	0.113	2.033	1.983	-0.085	-0.004	0.216
0.038	24.899	-0.108	-0.129	0.341	0.161	1.153	0.668	0.295	0.165	2.030	1.991	-0.082	-0.003	0.214
0.039	24.866	-0.109	-0.127	0.345	0.162	1.176	0.704	0.317	0.160	2.044	1.987	-0.077	-0.001	0.208
0.039	24.890	-0.107	-0.122	0.350	0.170	1.209	0.700	0.318	0.158	2.042	1.982	-0.077	-0.001	0.203
0.039	24.872	-0.107	-0.123	0.351	0.181	1.231	0.704	0.307	0.157	2.047	1.983	-0.072	0.001	0.196
0.039	24.899	-0.102	-0.122	0.350	0.194	1.227	0.677	0.311	0.192	2.043	1.990	-0.068	0.002	0.190
0.039	24.918	-0.101	-0.120	0.347	0.210	1.213	0.666	0.290	0.270	2.040	1.985	-0.067	0.003	0.185
0.040	24.884	-0.101	-0.117	0.342	0.228	1.180	0.640	0.230	0.347	2.044	1.986	-0.064	0.004	0.180
0.040	24.896	-0.100	-0.117	0.335	0.248	1.163	0.666	0.179	0.396	2.044	1.987	-0.062	0.004	0.175
0.040	24.902	-0.103	-0.116	0.326	0.271	1.160	0.671	0.159	0.384	2.050	1.980	-0.059	0.006	0.171
0.040	24.905	-0.104	-0.114	0.315	0.292	1.168	0.657	0.130	0.331	2.055	1.976	-0.058	0.008	0.165
0.040	24.893	-0.102	-0.112	0.304	0.313	1.189	0.638	0.134	0.260	2.052	1.978	-0.057	0.008	0.160
0.041	24.927	-0.102	-0.109	0.289	0.333	1.205	0.620	0.120	0.222	2.047	1.984	-0.055	0.009	0.157
0.041	24.933	-0.101	-0.106	0.274	0.351	1.181	0.589	0.122	0.229	2.050	1.985	-0.054	0.010	0.154
0.041	24.911	-0.097	-0.103	0.260	0.366	1.143	0.579	0.124	0.286	2.047	1.983	-0.053	0.013	0.150
0.041	24.945	-0.095	-0.098	0.246	0.379	1.156	0.586	0.122	0.347	2.043	1.984	-0.053	0.013	0.147
0.041	24.930	-0.093	-0.096	0.231	0.388	1.174	0.619	0.151	0.356	2.044	1.985	-0.052	0.016	0.143
0.042	24.957	-0.092	-0.092	0.218	0.393	1.185	0.626	0.166	0.372	2.045	1.986	-0.053	0.017	0.142
0.042	24.954	-0.091	-0.090	0.204	0.392	1.202	0.627	0.167	0.380	2.054	1.984	-0.054	0.019	0.139
0.042	24.936	-0.089	-0.085	0.192	0.393	1.219	0.595	0.171	0.369	2.046	1.985	-0.055	0.020	0.140
0.042	24.930	-0.089	-0.081	0.181	0.391	1.209	0.554	0.158	0.386	2.055	1.988	-0.058	0.022	0.137
0.042	24.969	-0.088	-0.076	0.171	0.385	1.189	0.522	0.158	0.426	2.050	1.985	-0.058	0.024	0.135
0.043	24.951	-0.082	-0.071	0.162	0.377	1.174	0.498	0.153	0.466	2.050	1.983	-0.060	0.024	0.134
0.043	24.954	-0.083	-0.067	0.155	0.368	1.157	0.514	0.138	0.512	2.049	1.989	-0.061	0.026	0.133
0.043	24.951	-0.081	-0.062	0.149	0.358	1.173	0.549	0.130	0.528	2.044	1.984	-0.063	0.025	0.130
0.043	24.957	-0.075	-0.062	0.145	0.348	1.235	0.571	0.145	0.531	2.049	1.987	-0.064	0.024	0.129
0.043	24.960	-0.078	-0.057	0.140	0.333	1.259	0.587	0.132	0.542	2.050	1.989	-0.066	0.025	0.127
0.044	24.966	-0.079	-0.055	0.139	0.319	1.269	0.555	0.110	0.596	2.044	1.987	-0.066	0.024	0.126
0.044	24.979	-0.080	-0.051	0.138	0.307	1.240	0.510	0.093	0.657	2.054	1.989	-0.067	0.024	0.125
0.044	24.969	-0.083	-0.051	0.139	0.294	1.185	0.463	0.107	0.711	2.051	1.984	-0.066	0.022	0.126
0.044	24.969	-0.084	-0.048	0.139	0.279	1.141	0.458	0.110	0.755	2.041	1.980	-0.066	0.020	0.125
0.044	24.982	-0.086	-0.046	0.142	0.269	1.137	0.448	0.138	0.797	2.048	1.984	-0.064	0.021	0.127
0.045	24.960	-0.084	-0.043	0.146	0.257	1.130	0.453	0.162	0.814	2.047	1.983	-0.064	0.018	0.128
0.045	24.973	-0.084	-0.041	0.151	0.245	1.148	0.450	0.161	0.840	2.049	1.987	-0.060	0.016	0.133
0.045	24.960	-0.083	-0.038	0.157	0.236	1.152	0.431	0.215	0.840	2.055	1.980	-0.058	0.015	0.137
0.045	24.957	-0.086	-0.033	0.160	0.227	1.140	0.409	0.226	0.852	2.055	1.984	-0.054	0.011	0.142
0.045	24.991	-0.086	-0.033	0.163	0.222	1.131	0.379	0.266	0.875	2.051	1.986	-0.048	0.009	0.149
0.046	24.963	-0.088	-0.029	0.169	0.217	1.129	0.356	0.301	0.917	2.050	1.989	-0.044	0.006	0.156
0.046	24.976	-0.091	-0.031	0.170	0.215	1.139	0.350	0.295	0.950	2.051	1.994	-0.039	0.003	0.164
0.046	24.979	-0.093	-0.030	0.173	0.215	1.141	0.346	0.270	1.004	2.047	1.984	-0.033	0.001	0.174
0.046	24.957	-0.097	-0.032	0.173	0.216	1.142	0.352	0.227	1.030	2.045	1.985	-0.027	-0.002	0.184
0.046	24.988	-0.094	-0.032	0.173	0.221	1.106	0.326	0.192	1.038	2.050	1.986	-0.020	-0.005	0.191
0.047	24.966	-0.093	-0.034	0.170	0.227	1.048	0.287	0.217	0.994	2.054	1.986	-0.014	-0.006	0.201
0.047	24.960	-0.094	-0.035	0.168	0.236	0.995	0.256	0.238	0.991	2.054	1.978	-0.008	-0.010	0.209
0.047	24.973	-0.095	-0.036	0.161	0.246	0.995	0.226	0.257	0.999	2.058	1.978	-0.001	-0.012	0.216
0.047	24.963	-0.096	-0.037	0.154	0.255	0.993	0.230	0.244	1.020	2.051	1.988	0.004	-0.014	0.222
0.047	24.954	-0.098	-0.038	0.145	0.268	1.014	0.243	0.219	1.084	2.060	1.985	0.010	-0.016	0.228
0.048	24.951	-0.101	-0.038	0.135	0.280	1.009	0.252	0.186	1.161	2.061	1.983	0.015	-0.017	0.231
0.048	24.960	-0.106	-0.038	0.125	0.293	1.011	0.279	0.165	1.204	2.047	1.984	0.020	-0.018	0.231
0.048	24.976	-0.107	-0.040	0.114	0.303	0.957	0.271	0.157	1.252	2.041	1.986	0.024	-0.022	0.232
0.048	24.963	-0.109	-0.039	0.105	0.309	0.888	0.257	0.195	1.272	2.051	1.983	0.027	-0.021	0.230
0.048	24.945	-0.107	-0.038	0.096	0.316	0.847	0.218	0.219	1.296	2.048	1.979	0.029	-0.023	0.223
0.049	24.969	-0.108	-0.039	0.087	0.321	0.825	0.186	0.225	1.313	2.053	1.987	0.032	-0.024	0.217
0.049	24.957	-0.109	-0.038	0.080	0.322	0.822	0.173	0.225	1.373	2.049	1.985	0.034	-0.023	0.208
0.049	24.957	-0.110	-0.035	0.073	0.317	0.859	0.201	0.163	1.416	2.050	1.980	0.034	-0.024	0.201
0.049	24.960	-0.111	-0.032	0.072	0.312	0.885	0.228	0.112	1.419	2.041	1.980	0.034	-0.022	0.192
0.049	24.973	-0.111	-0.032	0.070	0.306	0.888	0.251	0.038	1.398	2.043	1.978	0.035	-0.020	0.180
0.050	24.948	-0.113	-0.031	0.071	0.290	0.837	0.267	0.044	1.370	2.043	1.980	0.035	-0.020	0.169
0.050	24.973	-0.114	-0.028	0.072	0.275	0.778	0.249	0.094	1.326	2.049	1.976	0.033	-0.017	0.160
0.050	24.957	-0.114	-0.027	0.074	0.258	0.722	0.234	0.120	1.293	2.050	1.978	0.033	-0.015	0.147
0.050	24.973	-0.113	-0.027	0.079	0.240	0.728	0.220	0.128	1.297	2.068	1.973	0.031	-0.013	0.139
0.050	24.973	-0.112	-0.027	0.085	0.222	0.765	0.229	0.121	1.328	2.041	1.977	0.029	-0.011	0.130
0.051	24.957	-0.111	-0.028	0.089	0.202	0.821	0.247	0.080	1.402	2.053	1.977	0.027	-0.010	0.123
0.051	24.979	-0.109	-0.029	0.095	0.186	0.852	0.260	0.033	1.463	2.051	1.978	0.024	-0.005	0.118
0.051	24.966	-0.107	-0.031	0.099	0.169	0.848	0.270	0.016	1.488	2.050	1.982	0.022	-0.002	0.114
0.051	24.976	-0.104	-0.033	0.104	0.155	0.821	0.265	-0.001	1.482	2.045	1.980	0.019	0.001	0.111
0.051	24.979	-0.103	-0.036	0.107	0.144	0.764	0.254	0.058	1.493	2.046	1.976	0.017	0.003	0.110
0.052	24.973	-0.100	-0.037	0.108	0.136	0.734	0.233	0.082	1.512	2.049	1.971	0.014	0.005	0.113
0.052	24.976	-0.099	-0.042	0.108	0.131	0.729	0.219	0.121	1.553	2.045	1.976	0.010	0.007	0.115
0.052	24.985	-0.096	-0.043	0.107	0.127	0.748	0.204	0.113	1.624	2.046	1.976	0.009	0.009	0.116
0.052	24.969	-0.095	-0.046	0.106	0.130	0.820	0.230	0.048	1.680	2.048	1.975	0.005	0.010	0.120
0.052	24.966	-0.092	-0.048	0.099	0.133	0.840	0.198	0.004	1.721	2.046	1.974	0.001	0.010	0.123
0.053	25.000	-0.089	-0.050	0.095	0.139	0.837	0.223	-0.023	1.737	2.045	1.976	0.001	0.010	0.128
0.053	24.973	-0.083	-0.055	0.091	0.148	0.820	0.198	-0.015	1.718	2.050	1.966	-0.002	0.010	0.133
0.053	24.988	-0.082	-0.059	0.086	0.157	0.751	0.189	0.024	1.702	2.044	1.968	-0.004	0.010	0.137
0.053	24.994	-0.073	-0.062	0.081	0.166	0.741	0.193	0.050	1.681	2.053	1.971	-0.007	0.007	0.143
0.053	24.973	-0.072	-0.067	0.076	0.177	0.750	0.195	0.083	1.681	2.046	1.966	-0.009	0.007	0.147
0.054	24.985	-0.068	-0.068	0.071	0.185	0.789	0.233	0.056	1.695	2.045	1.971	-0.009	0.006	0.149
0.054	24.973	-0.067	-0.070	0.071	0.192	0.849	0.269	0.009	1.721	2.050	1.973	-0.009	0.005	0.155
0.054	24.979	-0.066	-0.070	0.069	0.201	0.897	0.274	-0.019	1.750	2.056	1.969	-0.011	-0.000	0.157
0.054	24.976	-0.065	-0.071	0.070	0.208	0.930	0.254	-0.058	1.773	2.051	1.976	-0.011	-0.000	0.161
0.054	24.976	-0.063	-0.070	0.072	0.213	0.931	0.242	-0.020	1.751	2.040	1.968	-0.011	-0.003	0.161
0.055	24.969	-0.060	-0.070	0.079	0.217	0.908	0.221	0.036	1.749	2.045	1.968	-0.011	-0.003	0.164
0.055	24.973	-0.056	-0.069	0.085	0.219	0.884	0.215	0.131	1.766	2.044	1.968	-0.010	-0.005	0.167
0.055	24.985	-0.051	-0.065	0.094	0.219	0.872	0.211	0.227	1.757	2.053	1.972	-0.009	-0.007	0.169
0.055	25.000	-0.048	-0.064	0.106	0.219	0.880	0.226	0.239	1.816	2.049	1.967	-0.006	-0.008	0.167
0.055	24.988	-0.046	-0.061	0.118	0.213	0.910	0.256	0.231	1.851	2.044	1.970	-0.003	-0.007	0.168
0.056	25.000	-0.041	-0.059	0.133	0.210	0.968	0.288	0.170	1.915	2.054	1.970	-0.001	-0.009	0.170
0.056	25.006	-0.042	-0.059	0.147	0.205	1.011	0.307	0.088	2.000	2.054	1.959	0.003	-0.007	0.171
0.056	25.000	-0.042	-0.055	0.163	0.198	1.026	0.340	0.072	1.987	2.047	1.972	0.006	-0.005	0.170
0.056	25.000	-0.042	-0.053	0.177	0.194	1.008	0.340	0.083	2.000	2.049	1.962	0.009	-0.005	0.172
0.056	25.000	-0.041	-0.049	0.189	0.188	0.982	0.327	0.110	1.996	2.046	1.967	0.013	-0.003	0.172
0.057	24.991	-0.039	-0.046	0.202	0.182	0.951	0.334	0.097	2.008	2.048	1.970	0.016	-0.001	0.173
0.057	25.009	-0.038	-0.043	0.216	0.178	0.953	0.339	0.073	2.035	2.043	1.963	0.018	0.002	0.172
0.057	24.982	-0.038	-0.041	0.227	0.174	0.957	0.341	0.043	2.073	2.050	1.967	0.020	0.004	0.171
0.057	25.000	-0.036	-0.040	0.236	0.170	0.999	0.353	0.025	2.148	2.046	1.963	0.024	0.006	0.170
0.057	24.991	-0.036	-0.038	0.244	0.170	1.007	0.400	0.016	2.203	2.053	1.964	0.026	0.008	0.167
0.058	25.024	-0.033	-0.037	0.250	0.168	1.021	0.419	0.036	2.207	2.044	1.967	0.027	0.011	0.166
0.058	24.991	-0.034	-0.036	0.254	0.170	0.986	0.456	0.109	2.194	2.036	1.966	0.027	0.012	0.164
0.058	25.003	-0.031	-0.034	0.257	0.171	0.945	0.489	0.132	2.181	2.042	1.962	0.028	0.015	0.161
0.058	25.000	-0.028	-0.033	0.258	0.177	0.897	0.490	0.118	2.150	2.047	1.966	0.027	0.017	0.158
0.058	25.015	-0.026	-0.033	0.258	0.184	0.860	0.518	0.094	2.162	2.053	1.960	0.028	0.018	0.156
0.059	25.012	-0.023	-0.028	0.257	0.194	0.875	0.540	0.049	2.184	2.038	1.963	0.027	0.021	0.153
0.059	25.000	-0.021	-0.028	0.254	0.206	0.877	0.572	-0.007	2.197	2.047	1.967	0.026	0.023	0.151
0.059	25.003	-0.017	-0.023	0.251	0.219	0.885	0.613	0.012	2.210	2.041	1.966	0.024	0.024	0.147
0.059	25.000	-0.018	-0.021	0.245	0.237	0.862	0.655	0.046	2.209	2.051	1.960	0.021	0.027	0.145
0.059	24.991	-0.015	-0.020	0.240	0.256	0.836	0.647	0.071	2.167	2.047	1.962	0.018	0.031	0.140
0.060	24.988	-0.013	-0.018	0.235	0.275	0.795	0.646	0.083	2.173	2.049	1.966	0.014	0.035	0.137
0.060	25.012	-0.009	-0.019	0.226	0.296	0.738	0.635	0.059	2.205	2.054	1.964	0.011	0.038	0.134
0.060	24.988	-0.007	-0.015	0.220	0.316	0.738	0.642	0.038	2.234	2.051	1.967	0.007	0.042	0.131
0.060	25.015	-0.002	-0.016	0.213	0.336	0.742	0.644	0.024	2.301	2.045	1.965	0.000	0.045	0.128
0.060	25.000	-0.002	-0.015	0.206	0.352	0.757	0.643	0.019	2.357	2.051	1.960	-0.005	0.050	0.126
0.061	24.988	-0.001	-0.013	0.201	0.368	0.750	0.648	0.052	2.407	2.047	1.965	-0.011	0.055	0.124
0.061	25.009	0.002	-0.013	0.194	0.384	0.728	0.648	0.076	2.429	2.052	1.968	-0.017	0.058	0.122
0.061	24.991	0.004	-0.010	0.187	0.393	0.656	0.617	0.089	2.435	2.054	1.966	-0.024	0.061	0.121
0.061	24.979	0.006	-0.006	0.181	0.406	0.642	0.604	0.066	2.444	2.052	1.958	-0.030	0.065	0.121
0.061	24.994	0.009	-0.005	0.177	0.408	0.607	0.547	0.012	2.469	2.048	1.963	-0.038	0.069	0.121
0.062	24.960	0.010	-0.001	0.174	0.413	0.605	0.508	-0.005	2.436	2.044	1.963	-0.044	0.072	0.122
0.062	24.991	0.013	0.001	0.174	0.415	0.616	0.474	-0.020	2.433	2.044	1.960	-0.051	0.074	0.121
0.062	24.991	0.015	0.003	0.173	0.411	0.608	0.458	0.009	2.372	2.039	1.958	-0.058	0.076	0.124
0.062	25.006	0.016	0.005	0.174	0.408	0.596	0.472	0.071	2.357	2.049	1.961	-0.062	0.077	0.126
0.062	25.000	0.019	0.009	0.177	0.400	0.550	0.476	0.129	2.357	2.037	1.968	-0.069	0.078	0.132
0.063	24.985	0.017	0.013	0.179	0.395	0.489	0.472	0.138	2.340	2.045	1.962	-0.074	0.078	0.135
0.063	25.000	0.018	0.016	0.189	0.386	0.449	0.457	0.114	2.345	2.051	1.963	-0.078	0.077	0.141
0.063	25.009	0.018	0.019	0.192	0.380	0.452	0.413	0.121	2.362	2.051	1.959	-0.081	0.076	0.147
0.063	24.988	0.016	0.025	0.201	0.375	0.449	0.383	0.130	2.344	2.046	1.962	-0.081	0.075	0.154
0.063	25.000	0.021	0.024	0.207	0.372	0.478	0.354	0.194	2.304	2.045	1.965	-0.084	0.071	0.161
0.064	25.000	0.021	0.026	0.215	0.371	0.461	0.324	0.272	2.235	2.043	1.964	-0.083	0.068	0.166
0.064	25.000	0.026	0.027	0.222	0.375	0.456	0.317	0.351	2.187	2.051	1.959	-0.081	0.062	0.175
0.064	25.018	0.025	0.028	0.228	0.381	0.405	0.300	0.422	2.179	2.049	1.963	-0.081	0.058	0.181
0.064	24.982	0.029	0.030	0.235	0.389	0.379	0.275	0.401	2.185	2.045	1.966	-0.077	0.052	0.188
0.064	25.027	0.029	0.028	0.241	0.402	0.356	0.257	0.348	2.205	2.046	1.963	-0.071	0.047	0.193
0.065	25.015	0.032	0.028	0.246	0.414	0.366	0.235	0.317	2.228	2.049	1.957	-0.068	0.041	0.197
0.065	24.982	0.033	0.031	0.248	0.428	0.388	0.247	0.299	2.209	2.048	1.963	-0.062	0.035	0.200
0.065	25.003	0.032	0.032	0.249	0.443	0.415	0.260	0.331	2.183	2.046	1.963	-0.058	0.030	0.204
0.065	25.000	0.034	0.033	0.247	0.455	0.420	0.281	0.386	2.134	2.044	1.961	-0.051	0.024	0.206
0.065	25.000	0.036	0.032	0.243	0.468	0.387	0.254	0.432	2.124	2.040	1.963	-0.047	0.018	0.205
0.066	24.982	0.037	0.033	0.238	0.478	0.348	0.234	0.447	2.161	2.043	1.957	-0.043	0.015	0.205
0.066	25.006	0.039	0.031	0.231	0.487	0.314	0.191	0.444	2.198	2.040	1.954	-0.038	0.011	0.203
0.066	24.994	0.040	0.030	0.222	0.496	0.282	0.185	0.410	2.227	2.043	1.967	-0.032	0.010	0.200
0.066	24.985	0.042	0.029	0.212	0.501	0.262	0.202	0.411	2.233	2.037	1.957	-0.029	0.006	0.198
0.066	25.000	0.044	0.027	0.201	0.505	0.283	0.233	0.423	2.227	2.039	1.958	-0.026	0.005	0.195
0.067	24.982	0.046	0.026	0.191	0.505	0.286	0.265	0.481	2.163	2.040	1.960	-0.024	0.006	0.192
0.067	25.003	0.049	0.024	0.180	0.504	0.281	0.303	0.536	2.130	2.047	1.959	-0.023	0.008	0.187
0.067	24.979	0.050	0.022	0.169	0.499	0.262	0.326	0.563	2.114	2.044	1.963	-0.022	0.010	0.184
0.067	24.994	0.054	0.022	0.158	0.494	0.262	0.319	0.584	2.125	2.037	1.963	-0.022	0.015	0.183
0.067	25.012	0.057	0.022	0.145	0.486	0.275	0.310	0.586	2.156	2.042	1.963	-0.023	0.021	0.180
0.068	25.000	0.058	0.022	0.133	0.477	0.293	0.298	0.560	2.167	2.036	1.959	-0.024	0.027	0.180
0.068	25.012	0.061	0.021	0.121	0.466	0.332	0.317	0.512	2.185	2.043	1.962	-0.027	0.033	0.178
0.068	25.000	0.063	0.021	0.110	0.456	0.356	0.348	0.490	2.165	2.049	1.962	-0.028	0.046	0.180
0.068	24.985	0.064	0.021	0.100	0.445	0.383	0.378	0.483	2.145	2.042	1.969	-0.030	0.054	0.181
0.068	25.003	0.065	0.020	0.090	0.434	0.381	0.403	0.526	2.126	2.037	1.968	-0.033	0.063	0.183
0.069	24.991	0.068	0.021	0.084	0.423	0.389	0.420	0.548	2.132	2.037	1.960	-0.035	0.073	0.185
0.069	25.000	0.071	0.020	0.077	0.413	0.401	0.413	0.567	2.102	2.026	1.958	-0.036	0.084	0.188
0.069	25.012	0.076	0.020	0.071	0.404	0.439	0.412	0.562	2.113	2.034	1.961	-0.039	0.091	0.191
0.069	25.000	0.080	0.020	0.066	0.397	0.477	0.443	0.532	2.138	2.036	1.969	-0.041	0.100	0.193
0.069	24.991	0.085	0.019	0.062	0.391	0.513	0.476	0.502	2.150	2.047	1.968	-0.046	0.107	0.196
0.070	25.003	0.087	0.019	0.057	0.389	0.514	0.518	0.492	2.217	2.036	1.966	-0.047	0.115	0.199
0.070	25.009	0.093	0.019	0.052	0.387	0.493	0.541	0.520	2.228	2.042	1.966	-0.051	0.118	0.199
0.070	25.015	0.092	0.017	0.049	0.389	0.433	0.538	0.550	2.217	2.038	1.961	-0.053	0.123	0.200
0.070	25.000	0.093	0.018	0.048	0.393	0.387	0.516	0.596	2.238	2.034	1.955	-0.058	0.126	0.201
0.070	24.985	0.094	0.015	0.045	0.399	0.368	0.500	0.614	2.186	2.039	1.964	-0.061	0.126	0.198
0.071	25.018	0.094	0.015	0.044	0.406	0.348	0.498	0.652	2.159	2.035	1.965	-0.062	0.125	0.195
0.071	25.009	0.096	0.013	0.041	0.419	0.364	0.518	0.635	2.125	2.030	1.959	-0.065	0.123	0.192
0.071	24.982	0.100	0.012	0.040	0.430	0.373	0.546	0.641	2.126	2.033	1.964	-0.068	0.118	0.188
0.071	25.003	0.101	0.009	0.042	0.443	0.360	0.569	0.641	2.154	2.037	1.961	-0.074	0.114	0.184
0.071	24.991	0.106	0.004	0.043	0.456	0.312	0.614	0.639	2.135	2.040	1.962	-0.077	0.107	0.178
0.072	25.021	0.107	-0.002	0.046	0.470	0.267	0.619	0.655	2.129	2.036	1.966	-0.081	0.102	0.175
0.072	25.015	0.108	-0.004	0.050	0.480	0.207	0.619	0.642	2.133	2.036	1.963	-0.085	0.092	0.167
0.072	24.985	0.109	-0.009	0.058	0.491	0.202	0.597	0.645	2.124	2.044	1.969	-0.089	0.084	0.163
0.072	25.018	0.109	-0.014	0.066	0.495	0.178	0.597	0.622	2.099	2.034	1.962	-0.092	0.076	0.160
0.072	25.000	0.112	-0.018	0.076	0.496	0.191	0.597	0.609	2.039	2.028	1.965	-0.095	0.067	0.153
0.073	24.985	0.114	-0.021	0.090	0.496	0.227	0.619	0.663	1.972	2.034	1.968	-0.099	0.060	0.148
0.073	25.012	0.113	-0.024	0.103	0.486	0.227	0.658	0.724	1.901	2.042	1.964	-0.102	0.053	0.143
0.073	25.009	0.119	-0.026	0.118	0.471	0.226	0.684	0.802	1.872	2.036	1.964	-0.103	0.045	0.140
0.073	25.021	0.120	-0.029	0.134	0.457	0.177	0.680	0.851	1.912	2.040	1.959	-0.106	0.040	0.139
0.073	24.991	0.120	-0.029	0.148	0.436	0.160	0.660	0.807	1.998	2.039	1.965	-0.105	0.033	0.137
0.074	25.037	0.120	-0.029	0.163	0.413	0.133	0.620	0.757	2.118	2.039	1.961	-0.107	0.030	0.136
0.074	24.991	0.121	-0.030	0.177	0.384	0.119	0.587	0.714	2.137	2.037	1.966	-0.107	0.027	0.136
0.074	24.985	0.121	-0.028	0.190	0.358	0.101	0.585	0.773	2.089	2.036	1.967	-0.106	0.026	0.139
0.074	24.991	0.121	-0.027	0.199	0.330	0.108	0.582	0.845	1.972	2.037	1.963	-0.104	0.025	0.140
0.074	25.006	0.122	-0.027	0.211	0.303	0.080	0.592	0.908	1.878	2.033	1.966	-0.101	0.025	0.143
0.075	25.009	0.122	-0.028	0.215	0.277	0.045	0.580	0.916	1.851	2.035	1.970	-0.097	0.026	0.150
0.075	24.991	0.123	-0.025	0.218	0.249	0.005	0.562	0.870	1.883	2.038	1.972	-0.094	0.028	0.155
0.075	24.982	0.124	-0.022	0.224	0.227	-0.026	0.535	0.792	1.962	2.040	1.965	-0.090	0.030	0.163
0.075	24.979	0.125	-0.022	0.221	0.207	-0.029	0.493	0.741	1.980	2.040	1.974	-0.085	0.032	0.170
0.075	24.976	0.126	-0.022	0.224	0.189	-0.019	0.465	0.718	1.922	2.033	1.966	-0.080	0.035	0.179
0.076	24.982	0.126	-0.021	0.220	0.177	0.014	0.451	0.743	1.840	2.036	1.969	-0.073	0.038	0.188
0.076	25.000	0.125	-0.019	0.216	0.168	0.020	0.445	0.800	1.720	2.033	1.958	-0.068	0.044	0.198
0.076	24.985	0.126	-0.018	0.210	0.163	0.022	0.438	0.833	1.634	2.039	1.965	-0.062	0.044	0.207
0.076	24.991	0.124	-0.016	0.201	0.160	-0.024	0.417	0.832	1.628	2.032	1.960	-0.056	0.048	0.217
0.076	24.979	0.123	-0.012	0.194	0.164	-0.065	0.413	0.828	1.689	2.034	1.966	-0.049	0.051	0.225
0.077	24.982	0.120	-0.009	0.184	0.171	-0.109	0.409	0.797	1.750	2.042	1.971	-0.044	0.053	0.233
0.077	24.985	0.121	-0.008	0.173	0.177	-0.113	0.395	0.814	1.778	2.035	1.971	-0.038	0.056	0.238
0.077	24.957	0.121	-0.003	0.164	0.189	-0.071	0.402	0.831	1.724	2.030	1.968	-0.032	0.057	0.243
0.077	24.991	0.122	-0.003	0.153	0.198	-0.015	0.409	0.861	1.644	2.040	1.967	-0.029	0.060	0.249
0.077	24.991	0.123	-0.001	0.143	0.210	0.058	0.399	0.850	1.552	2.037	1.966	-0.022	0.061	0.250
0.078	24.973	0.123	0.001	0.133	0.222	0.119	0.397	0.814	1.499	2.040	1.970	-0.018	0.060	0.252
0.078	25.000	0.122	0.002	0.121	0.236	0.132	0.356	0.784	1.498	2.034	1.966	-0.014	0.060	0.251
0.078	24.960	0.120	0.002	0.111	0.248	0.124	0.327	0.754	1.524	2.030	1.970	-0.010	0.060	0.247
0.078	24.960	0.118	0.004	0.100	0.259	0.106	0.314	0.785	1.544	2.037	1.974	-0.008	0.059	0.243
0.078	24.973	0.115	0.006	0.091	0.267	0.111	0.303	0.833	1.510	2.040	1.968	-0.007	0.059	0.237
0.079	24.939	0.114	0.005	0.083	0.274	0.129	0.295	0.870	1.447	2.038	1.966	-0.006	0.059	0.230
0.079	24.969	0.114	0.007	0.076	0.279	0.148	0.319	0.913	1.394	2.039	1.969	-0.006	0.059	0.222
0.079	24.963	0.113	0.009	0.070	0.279	0.178	0.332	0.911	1.379	2.035	1.973	-0.007	0.058	0.214
0.079	24.945	0.111	0.011	0.068	0.280	0.191	0.353	0.870	1.413	2.037	1.969	-0.007	0.056	0.206
0.079	24.966	0.110	0.013	0.068	0.277	0.162	0.391	0.812	1.488	2.049	1.972	-0.007	0.057	0.196
0.080	24.936	0.105	0.016	0.070	0.275	0.128	0.414	0.726	1.517	2.046	1.971	-0.009	0.056	0.188
0.080	24.945	0.103	0.016	0.075	0.269	0.099	0.452	0.727	1.505	2.043	1.968	-0.011	0.057	0.179
0.080	24.930	0.098	0.019	0.081	0.261	0.086	0.478	0.755	1.438	2.039	1.969	-0.012	0.059	0.175
0.080	24.939	0.094	0.020	0.089	0.257	0.099	0.497	0.822	1.361	2.050	1.976	-0.014	0.061	0.171
0.080	24.948	0.090	0.022	0.097	0.252	0.138	0.507	0.851	1.328	2.046	1.968	-0.015	0.064	0.167
0.081	24.927	0.087	0.025	0.105	0.247	0.181	0.520	0.883	1.344	2.047	1.968	-0.017	0.067	0.165
0.081	24.927	0.083	0.029	0.116	0.243	0.214	0.538	0.858	1.399	2.037	1.964	-0.020	0.072	0.167
0.081	24.921	0.078	0.033	0.126	0.240	0.211	0.584	0.772	1.406	2.036	1.971	-0.020	0.077	0.168
0.081	24.911	0.075	0.037	0.136	0.240	0.206	0.653	0.781	1.441	2.041	1.964	-0.020	0.083	0.173
0.081	24.927	0.071	0.041	0.147	0.240	0.165	0.710	0.799	1.408	2.036	1.966	-0.020	0.087	0.179
0.082	24.911	0.067	0.045	0.158	0.242	0.140	0.743	0.880	1.300	2.037	1.974	-0.019	0.094	0.187
0.082	24.936	0.062	0.048	0.166	0.244	0.136	0.755	0.992	1.215	2.032	1.973	-0.017	0.101	0.196
0.082	24.908	0.058	0.055	0.175	0.248	0.153	0.761	1.064	1.160	2.035	1.970	-0.016	0.106	0.204
0.082	24.902	0.054	0.057	0.184	0.253	0.207	0.727	1.091	1.187	2.035	1.974	-0.013	0.113	0.214
0.082	24.905	0.051	0.057	0.189	0.261	0.220	0.693	1.026	1.250	2.041	1.968	-0.010	0.120	0.226
0.083	24.908	0.048	0.060	0.195	0.266	0.235	0.696	0.959	1.309	2.041	1.964	-0.006	0.124	0.236
0.083	24.905	0.044	0.061	0.201	0.274	0.237	0.677	0.896	1.354	2.039	1.974	-0.003	0.129	0.245
0.083	24.905	0.039	0.061	0.207	0.281	0.203	0.696	0.853	1.344	2.044	1.975	0.002	0.133	0.253
0.083	24.902	0.035	0.064	0.215	0.288	0.172	0.693	0.844	1.271	2.045	1.978	0.005	0.134	0.261
0.083	24.884	0.031	0.063	0.221	0.296	0.144	0.704	0.883	1.175	2.044	1.972	0.010	0.136	0.269
0.084	24.899	0.028	0.067	0.229	0.302	0.140	0.687	0.890	1.067	2.045	1.975	0.014	0.136	0.271
0.084	24.896	0.027	0.066	0.236	0.307	0.151	0.656	0.858	1.054	2.032	1.977	0.017	0.136	0.275
0.084	24.887	0.025	0.066	0.243	0.311	0.155	0.642	0.812	1.070	2.038	1.971	0.022	0.134	0.274
0.084	24.887	0.022	0.068	0.249	0.313	0.156	0.654	0.772	1.101	2.036	1.975	0.025	0.130	0.272
0.084	24.890	0.023	0.070	0.255	0.315	0.121	0.641	0.735	1.108	2.034	1.975	0.028	0.126	0.267
0.085	24.899	0.021	0.071	0.258	0.313	0.083	0.667	0.740	1.105	2.036	1.977	0.030	0.122	0.262
0.085	24.893	0.019	0.073	0.262	0.311	0.054	0.677	0.781	1.057	2.039	1.977	0.031	0.116	0.253
0.085	24.887	0.016	0.073	0.263	0.306	0.076	0.653	0.811	0.989	2.037	1.972	0.032	0.111	0.243
0.085	24.893	0.016	0.074	0.264	0.299	0.087	0.638	0.808	0.957	2.035	1.979	0.032	0.107	0.233
0.085	24.875	0.014	0.074	0.264	0.292	0.121	0.633	0.808	0.965	2.044	1.981	0.033	0.101	0.221
0.086	24.884	0.016	0.075	0.261	0.282	0.119	0.618	0.792	0.953	2.045	1.981	0.031	0.096	0.207
0.086	24.887	0.015	0.075	0.260	0.272	0.142	0.632	0.792	0.932	2.039	1.973	0.030	0.092	0.194
0.086	24.881	0.018	0.075	0.257	0.258	0.140	0.631	0.801	0.912	2.041	1.975	0.026	0.089	0.182
0.086	24.869	0.019	0.076	0.253	0.249	0.167	0.625	0.826	0.854	2.040	1.972	0.023	0.086	0.169
0.086	24.872	0.019	0.078	0.251	0.236	0.178	0.595	0.828	0.786	2.041	1.977	0.019	0.085	0.156
0.087	24.872	0.020	0.081	0.245	0.225	0.225	0.570	0.809	0.728	2.033	1.980	0.015	0.082	0.145
0.087	24.881	0.022	0.084	0.240	0.214	0.271	0.531	0.751	0.744	2.041	1.972	0.011	0.082	0.135
0.087	24.863	0.024	0.087	0.233	0.203	0.294	0.500	0.648	0.759	2.037	1.976	0.005	0.083	0.127
0.087	24.878	0.029	0.090	0.227	0.196	0.302	0.505	0.593	0.814	2.041	1.982	0.000	0.084	0.120
0.087	24.875	0.032	0.092	0.220	0.191	0.304	0.487	0.577	0.814	2.040	1.984	-0.005	0.087	0.112
0.088	24.878	0.036	0.094	0.210	0.186	0.288	0.484	0.635	0.811	2.048	1.986	-0.011	0.087	0.107
0.088	24.866	0.040	0.096	0.203	0.185	0.291	0.462	0.716	0.789	2.038	1.979	-0.016	0.091	0.103
0.088	24.863	0.041	0.097	0.195	0.186	0.299	0.428	0.779	0.784	2.037	1.982	-0.021	0.093	0.102
0.088	24.863	0.043	0.096	0.188	0.188	0.341	0.390	0.804	0.802	2.037	1.972	-0.025	0.092	0.098
0.088	24.857	0.044	0.096	0.182	0.192	0.364	0.369	0.783	0.851	2.036	1.978	-0.029	0.095	0.099
0.089	24.857	0.046	0.095	0.176	0.198	0.376	0.350	0.714	0.916	2.029	1.979	-0.032	0.094	0.097
0.089	24.835	0.048	0.094	0.169	0.207	0.343	0.342	0.639	0.942	2.035	1.977	-0.035	0.094	0.097
0.089	24.878	0.050	0.095	0.166	0.216	0.304	0.349	0.640	0.905	2.041	1.988	-0.038	0.092	0.095
0.089	24.857	0.051	0.091	0.163	0.224	0.279	0.335	0.724	0.816	2.039	1.986	-0.042	0.091	0.095
0.089	24.866	0.053	0.086	0.159	0.231	0.280	0.315	0.825	0.742	2.040	1.990	-0.040	0.086	0.094
0.090	24.863	0.056	0.086	0.157	0.241	0.316	0.312	0.881	0.680	2.032	1.989	-0.038	0.081	0.092
0.090	24.869	0.056	0.082	0.155	0.246	0.376	0.324	0.857	0.671	2.038	1.983	-0.038	0.077	0.091
0.090	24.872	0.055	0.077	0.154	0.249	0.432	0.343	0.797	0.708	2.028	1.976	-0.036	0.072	0.089
0.090	24.869	0.056	0.070	0.153	0.251	0.465	0.350	0.726	0.726	2.034	1.982	-0.034	0.062	0.087
0.090	24.872	0.058	0.065	0.155	0.251	0.488	0.354	0.722	0.736	2.029	1.982	-0.030	0.055	0.085
0.091	24.887	0.056	0.060	0.155	0.245	0.500	0.378	0.785	0.716	2.026	1.984	-0.027	0.047	0.080
0.091	24.872	0.058	0.056	0.155	0.237	0.505	0.365	0.858	0.690	2.035	1.977	-0.023	0.038	0.077
0.091	24.887	0.057	0.052	0.156	0.225	0.533	0.366	0.895	0.707	2.039	1.985	-0.017	0.030	0.072
0.091	24.896	0.059	0.049	0.154	0.213	0.538	0.363	0.913	0.706	2.044	1.984	-0.012	0.020	0.069
0.091	24.875	0.058	0.047	0.155	0.197	0.553	0.374	0.870	0.716	2.041	1.979	-0.004	0.012	0.064
0.092	24.890	0.056	0.045	0.153	0.178	0.562	0.402	0.845	0.766	2.035	1.982	0.002	0.004	0.060
0.092	24.908	0.053	0.045	0.148	0.158	0.571	0.440	0.834	0.799	2.030	1.982	0.008	-0.001	0.056
0.092	24.911	0.046	0.042	0.145	0.139	0.569	0.457	0.820	0.803	2.040	1.980	0.016	-0.007	0.054
0.092	24.890	0.042	0.043	0.140	0.117	0.571	0.501	0.839	0.798	2.032	1.982	0.022	-0.015	0.048
0.092	24.878	0.037	0.041	0.136	0.098	0.569	0.501	0.873	0.805	2.033	1.982	0.028	-0.020	0.047
0.093	24.887	0.035	0.041	0.127	0.078	0.553	0.513	0.869	0.755	2.037	1.986	0.037	-0.025	0.046
0.093	24.878	0.034	0.042	0.119	0.058	0.530	0.559	0.860	0.761	2.034	1.978	0.044	-0.028	0.041
0.093	24.887	0.030	0.043	0.113	0.041	0.509	0.585	0.816	0.765	2.031	1.983	0.049	-0.031	0.040
0.093	24.911	0.027	0.047	0.106	0.024	0.487	0.623	0.790	0.763	2.039	1.989	0.057	-0.034	0.037
0.093	24.887	0.024	0.047	0.096	0.009	0.474	0.659	0.774	0.755	2.036	1.982	0.060	-0.035	0.037
0.094	24.899	0.017	0.050	0.088	-0.004	0.468	0.703	0.752	0.716	2.047	1.977	0.066	-0.037	0.035
0.094	24.896	0.012	0.052	0.078	-0.014	0.488	0.717	0.747	0.693	2.036	1.980	0.070	-0.038	0.034
0.094	24.890	0.002	0.052	0.067	-0.022	0.520	0.729	0.766	0.664	2.040	1.982	0.074	-0.040	0.034
0.094	24.896	-0.006	0.052	0.056	-0.027	0.534	0.738	0.813	0.643	2.039	1.980	0.077	-0.038	0.032
0.094	24.890	-0.014	0.053	0.042	-0.031	0.520	0.760	0.822	0.642	2.040	1.985	0.077	-0.039	0.031
0.095	24.893	-0.021	0.053	0.029	-0.032	0.500	0.801	0.803	0.644	2.037	1.988	0.080	-0.040	0.028
0.095	24.887	-0.026	0.053	0.015	-0.030	0.501	0.837	0.778	0.666	2.041	1.982	0.079	-0.041	0.027
0.095	24.893	-0.032	0.051	0.000	-0.027	0.517	0.849	0.740	0.641	2.041	1.981	0.079	-0.042	0.026
0.095	24.869	-0.039	0.052	-0.014	-0.023	0.570	0.859	0.736	0.634	2.037	1.984	0.077	-0.043	0.023
0.095	24.887	-0.047	0.049	-0.030	-0.015	0.596	0.822	0.735	0.583	2.034	1.981	0.075	-0.045	0.020
0.096	24.887	-0.053	0.048	-0.044	-0.008	0.632	0.779	0.759	0.519	2.042	1.976	0.072	-0.048	0.018
0.096	24.878	-0.063	0.046	-0.057	-0.001	0.631	0.756	0.803	0.483	2.039	1.981	0.067	-0.051	0.015
0.096	24.869	-0.069	0.044	-0.071	0.006	0.639	0.751	0.826	0.435	2.044	1.974	0.063	-0.055	0.012
0.096	24.881	-0.077	0.042	-0.083	0.015	0.647	0.797	0.796	0.433	2.049	1.982	0.059	-0.058	0.008
0.096	24.878	-0.080	0.040	-0.095	0.018	0.645	0.814	0.742	0.484	2.041	1.985	0.053	-0.062	0.004
0.097	24.866	-0.085	0.040	-0.102	0.022	0.669	0.834	0.668	0.535	2.044	1.986	0.047	-0.065	0.000
0.097	24.866	-0.090	0.037	-0.108	0.026	0.716	0.821	0.635	0.563	2.043	1.980	0.041	-0.068	-0.004
0.097	24.869	-0.097	0.034	-0.113	0.028	0.713	0.772	0.650	0.572	2.046	1.985	0.034	-0.072	-0.008
0.097	24.866	-0.104	0.033	-0.111	0.030	0.712	0.739	0.731	0.532	2.053	1.978	0.027	-0.075	-0.012
0.097	24.847	-0.114	0.028	-0.111	0.029	0.714	0.713	0.807	0.481	2.040	1.975	0.020	-0.078	-0.014
0.098	24.857	-0.120	0.028	-0.107	0.028	0.717	0.740	0.851	0.445	2.046	1.983	0.013	-0.081	-0.017
0.098	24.854	-0.126	0.025	-0.103	0.026	0.736	0.761	0.797	0.435	2.043	1.981	0.007	-0.083	-0.020
0.098	24.854	-0.131	0.022	-0.096	0.020	0.777	0.784	0.717	0.462	2.048	1.984	-0.001	-0.084	-0.020
0.098	24.844	-0.135	0.020	-0.086	0.018	0.843	0.772	0.652	0.501	2.048	1.977	-0.006	-0.084	-0.022
0.098	24.850	-0.137	0.016	-0.076	0.013	0.897	0.731	0.570	0.498	2.038	1.986	-0.012	-0.084	-0.022
0.099	24.854	-0.142	0.013	-0.064	0.007	0.955	0.681	0.555	0.445	2.049	1.979	-0.018	-0.083	-0.020
0.099	24.866	-0.146	0.013	-0.051	0.001	0.967	0.646	0.607	0.383	2.045	1.984	-0.023	-0.080	-0.019
0.099	24.817	-0.149	0.010	-0.038	-0.004	0.956	0.630	0.676	0.318	2.046	1.978	-0.028	-0.076	-0.014
0.099	24.820	-0.150	0.009	-0.021	-0.007	0.944	0.646	0.718	0.275	2.046	1.987	-0.031	-0.073	-0.011
0.099	24.829	-0.154	0.006	-0.010	-0.014	0.949	0.679	0.698	0.319	2.053	1.971	-0.035	-0.066	-0.003
0.100	24.817	-0.159	0.004	0.007	-0.011	0.979	0.704	0.626	0.371	2.049	1.982	-0.038	-0.060	0.003
0.100	24.832	-0.160	0.003	0.020	-0.012	1.014	0.681	0.570	0.471	2.057	1.982	-0.041	-0.054	0.009
0.100	24.817	-0.162	-0.000	0.033	-0.012	1.070	0.637	0.548	0.483	2.055	1.985	-0.043	-0.045	0.016
0.100	24.823	-0.165	-0.002	0.044	-0.009	1.113	0.591	0.590	0.529	2.044	1.979	-0.046	-0.036	0.023
0.100	24.802	-0.165	-0.006	0.057	-0.008	1.127	0.565	0.634	0.462	2.054	1.981	-0.048	-0.026	0.033
0.101	24.814	-0.167	-0.008	0.063	-0.002	1.114	0.586	0.677	0.432	2.048	1.973	-0.051	-0.017	0.042
0.101	24.808	-0.168	-0.012	0.073	0.002	1.110	0.654	0.665	0.447	2.056	1.980	-0.053	-0.006	0.051
0.101	24.811	-0.169	-0.016	0.079	0.009	1.116	0.702	0.609	0.483	2.045	1.980	-0.055	0.004	0.060
0.101	24.805	-0.169	-0.019	0.087	0.016	1.123	0.736	0.537	0.550	2.054	1.975	-0.058	0.014	0.070
0.101	24.805	-0.172	-0.025	0.093	0.022	1.135	0.726	0.508	0.585	2.047	1.976	-0.060	0.023	0.078
0.102	24.796	-0.172	-0.028	0.098	0.029	1.129	0.675	0.435	0.558	2.044	1.987	-0.061	0.033	0.086
0.102	24.789	-0.171	-0.035	0.104	0.033	1.119	0.663	0.443	0.537	2.041	1.983	-0.060	0.039	0.093
0.102	24.796	-0.168	-0.038	0.106	0.038	1.095	0.640	0.449	0.502	2.043	1.980	-0.060	0.046	0.100
0.102	24.805	-0.168	-0.045	0.109	0.040	1.057	0.689	0.436	0.494	2.046	1.979	-0.060	0.053	0.103
0.102	24.802	-0.165	-0.046	0.111	0.041	1.039	0.747	0.421	0.537	2.045	1.982	-0.058	0.058	0.105
0.103	24.808	-0.164	-0.052	0.110	0.041	1.037	0.796	0.351	0.608	2.043	1.977	-0.057	0.061	0.107
0.103	24.805	-0.162	-0.055	0.109	0.038	1.048	0.828	0.326	0.653	2.043	1.975	-0.053	0.063	0.106
0.103	24.789	-0.160	-0.058	0.111	0.034	1.076	0.841	0.326	0.659	2.046	1.978	-0.051	0.062	0.105
0.103	24.823	-0.161	-0.062	0.108	0.031	1.052	0.800	0.317	0.607	2.044	1.973	-0.046	0.062	0.103
0.103	24.802	-0.157	-0.065	0.105	0.024	1.045	0.772	0.365	0.534	2.045	1.981	-0.040	0.058	0.098
0.104	24.811	-0.157	-0.067	0.099	0.022	1.001	0.783	0.424	0.476	2.047	1.977	-0.034	0.055	0.093
0.104	24.820	-0.155	-0.068	0.099	0.014	0.973	0.814	0.484	0.468	2.039	1.974	-0.028	0.050	0.086
0.104	24.817	-0.153	-0.069	0.097	0.008	0.961	0.868	0.512	0.476	2.047	1.976	-0.020	0.043	0.079
0.104	24.838	-0.150	-0.070	0.094	0.003	0.981	0.884	0.562	0.528	2.047	1.966	-0.012	0.037	0.070
0.104	24.811	-0.146	-0.070	0.092	-0.003	1.030	0.884	0.571	0.547	2.042	1.972	-0.004	0.030	0.060
0.105	24.808	-0.145	-0.070	0.090	-0.008	1.056	0.853	0.569	0.538	2.043	1.972	0.005	0.023	0.049
0.105	24.832	-0.142	-0.070	0.090	-0.004	1.081	0.832	0.547	0.521	2.035	1.971	0.014	0.015	0.040
0.105	24.814	-0.140	-0.069	0.089	-0.005	1.043	0.816	0.534	0.462	2.050	1.970	0.021	0.006	0.029
0.105	24.832	-0.136	-0.068	0.088	-0.003	1.026	0.854	0.546	0.432	2.040	1.967	0.029	-0.001	0.018
0.105	24.829	-0.135	-0.067	0.091	0.008	0.990	0.883	0.553	0.403	2.046	1.967	0.034	-0.007	0.011
0.106	24.841	-0.132	-0.066	0.091	0.019	0.982	0.921	0.558	0.404	2.042	1.970	0.042	-0.013	0.001
0.106	24.829	-0.126	-0.064	0.091	0.035	0.992	0.924	0.521	0.454	2.046	1.970	0.046	-0.019	-0.008
0.106	24.838	-0.124	-0.066	0.095	0.055	0.992	0.895	0.465	0.493	2.041	1.974	0.051	-0.023	-0.014
0.106	24.844	-0.120	-0.066	0.100	0.076	0.965	0.862	0.402	0.517	2.045	1.968	0.055	-0.026	-0.019
0.106	24.835	-0.115	-0.070	0.101	0.100	0.938	0.814	0.408	0.525	2.039	1.971	0.057	-0.029	-0.023
0.107	24.854	-0.114	-0.074	0.104	0.127	0.913	0.777	0.438	0.529	2.042	1.962	0.057	-0.029	-0.024
0.107	24.844	-0.113	-0.077	0.107	0.153	0.870	0.802	0.465	0.453	2.040	1.965	0.059	-0.029	-0.025
0.107	24.857	-0.111	-0.083	0.108	0.180	0.859	0.809	0.516	0.435	2.043	1.966	0.059	-0.027	-0.023
0.107	24.844	-0.111	-0.089	0.111	0.205	0.857	0.827	0.509	0.434	2.045	1.968	0.058	-0.025	-0.020
0.107	24.847	-0.108	-0.092	0.110	0.228	0.876	0.821	0.497	0.458	2.038	1.959	0.057	-0.024	-0.015
0.108	24.854	-0.104	-0.100	0.108	0.250	0.860	0.766	0.426	0.494	2.043	1.962	0.055	-0.019	-0.010
0.108	24.841	-0.101	-0.105	0.108	0.267	0.877	0.744	0.393	0.523	2.039	1.967	0.052	-0.014	-0.001
0.108	24.835	-0.097	-0.110	0.104	0.282	0.887	0.718	0.347	0.506	2.044	1.958	0.050	-0.008	0.009
0.108	24.844	-0.094	-0.117	0.100	0.292	0.902	0.700	0.360	0.444	2.034	1.963	0.047	-0.002	0.017
0.108	24.841	-0.091	-0.121	0.096	0.299	0.897	0.694	0.407	0.403	2.035	1.961	0.043	0.005	0.028
0.109	24.847	-0.091	-0.128	0.091	0.302	0.894	0.689	0.443	0.360	2.039	1.955	0.039	0.014	0.039
0.109	24.863	-0.091	-0.131	0.085	0.298	0.943	0.655	0.480	0.393	2.034	1.955	0.036	0.019	0.050
0.109	24.844	-0.089	-0.135	0.080	0.291	0.989	0.640	0.462	0.489	2.029	1.955	0.033	0.026	0.062
0.109	24.841	-0.088	-0.138	0.075	0.281	0.997	0.596	0.395	0.577	2.028	1.958	0.030	0.033	0.069
0.109	24.850	-0.085	-0.140	0.069	0.266	1.028	0.565	0.372	0.659	2.034	1.955	0.026	0.039	0.079
0.110	24.829	-0.084	-0.142	0.063	0.252	1.040	0.561	0.411	0.667	2.033	1.955	0.023	0.046	0.086
0.110	24.866	-0.081	-0.141	0.058	0.231	1.002	0.556	0.465	0.638	2.026	1.958	0.019	0.052	0.092
0.110	24.844	-0.078	-0.141	0.053	0.214	0.998	0.569	0.476	0.606	2.033	1.954	0.016	0.057	0.096
0.110	24.850	-0.078	-0.141	0.049	0.194	0.967	0.551	0.453	0.592	2.025	1.953	0.013	0.059	0.097
0.110	24.841	-0.078	-0.140	0.043	0.176	0.959	0.512	0.375	0.616	2.033	1.951	0.010	0.062	0.099
0.111	24.826	-0.078	-0.140	0.041	0.161	0.950	0.470	0.298	0.710	2.032	1.949	0.008	0.063	0.098
0.111	24.863	-0.079	-0.140	0.037	0.148	0.960	0.424	0.203	0.813	2.028	1.944	0.006	0.062	0.094
0.111	24.850	-0.079	-0.138	0.033	0.137	0.981	0.429	0.180	0.848	2.032	1.945	0.004	0.062	0.088
0.111	24.820	-0.080	-0.139	0.029	0.130	0.990	0.416	0.230	0.821	2.021	1.947	0.003	0.058	0.080
0.111	24.832	-0.080	-0.139	0.024	0.123	0.971	0.426	0.303	0.757	2.022	1.947	0.002	0.054	0.072
0.112	24.832	-0.079	-0.140	0.020	0.121	0.938	0.434	0.360	0.711	2.027	1.948	0.002	0.049	0.062
0.112	24.850	-0.079	-0.140	0.014	0.120	0.912	0.417	0.381	0.705	2.018	1.941	0.001	0.043	0.048
0.112	24.850	-0.076	-0.141	0.008	0.120	0.918	0.398	0.393	0.784	2.027	1.943	0.000	0.034	0.035
0.112	24.838	-0.074	-0.143	0.000	0.121	0.953	0.365	0.384	0.880	2.034	1.939	0.000	0.029	0.024
0.112	24.878	-0.076	-0.143	-0.006	0.123	0.983	0.339	0.378	0.933	2.032	1.942	-0.000	0.021	0.009
0.113	24.857	-0.076	-0.143	-0.013	0.125	1.031	0.343	0.444	0.931	2.020	1.941	-0.000	0.012	-0.005
0.113	24.838	-0.080	-0.146	-0.019	0.129	1.057	0.331	0.492	0.876	2.027	1.945	-0.000	0.003	-0.015
0.113	24.850	-0.083	-0.144	-0.027	0.130	1.071	0.366	0.502	0.786	2.024	1.941	0.003	-0.004	-0.028
0.113	24.838	-0.086	-0.145	-0.033	0.133	1.068	0.392	0.493	0.714	2.021	1.939	0.003	-0.012	-0.037
0.113	24.863	-0.087	-0.146	-0.036	0.133	1.068	0.414	0.446	0.684	2.026	1.936	0.004	-0.019	-0.048
0.114	24.841	-0.086	-0.146	-0.037	0.133	1.083	0.402	0.412	0.716	2.026	1.936	0.005	-0.024	-0.056
0.114	24.857	-0.085	-0.147	-0.040	0.131	1.093	0.407	0.407	0.759	2.023	1.934	0.007	-0.029	-0.062
0.114	24.844	-0.085	-0.146	-0.040	0.129	1.094	0.417	0.420	0.797	2.028	1.934	0.010	-0.032	-0.067
0.114	24.850	-0.086	-0.144	-0.039	0.124	1.102	0.434	0.509	0.802	2.021	1.940	0.012	-0.034	-0.069
0.114	24.850	-0.085	-0.145	-0.038	0.120	1.116	0.449	0.554	0.792	2.028	1.931	0.014	-0.036	-0.070
0.115	24.838	-0.090	-0.145	-0.035	0.114	1.092	0.461	0.542	0.749	2.019	1.931	0.017	-0.036	-0.070
0.115	24.860	-0.094	-0.142	-0.033	0.109	1.070	0.456	0.498	0.764	2.024	1.928	0.019	-0.033	-0.068
0.115	24.829	-0.098	-0.137	-0.029	0.102	1.039	0.460	0.434	0.824	2.029	1.932	0.020	-0.031	-0.065
0.115	24.835	-0.101	-0.139	-0.027	0.096	1.017	0.439	0.402	0.880	2.025	1.934	0.022	-0.027	-0.061
0.115	24.844	-0.102	-0.136	-0.023	0.088	1.004	0.469	0.409	0.963	2.028	1.936	0.024	-0.023	-0.055
0.116	24.823	-0.105	-0.136	-0.020	0.083	0.991	0.478	0.441	1.066	2.021	1.924	0.026	-0.018	-0.049
0.116	24.863	-0.102	-0.134	-0.019	0.076	0.953	0.493	0.478	1.128	2.015	1.933	0.026	-0.012	-0.043
0.116	24.847	-0.104	-0.134	-0.016	0.068	0.947	0.504	0.494	1.129	2.025	1.928	0.026	-0.006	-0.035
0.116	24.844	-0.103	-0.132	-0.014	0.065	0.921	0.512	0.476	1.120	2.029	1.934	0.026	-0.001	-0.028
0.116	24.875	-0.109	-0.132	-0.015	0.059	0.935	0.514	0.452	1.104	2.017	1.930	0.026	0.006	-0.022
0.117	24.866	-0.112	-0.132	-0.015	0.056	0.921	0.499	0.435	1.094	2.019	1.933	0.027	0.011	-0.013
0.117	24.872	-0.117	-0.133	-0.017	0.054	0.912	0.507	0.466	1.088	2.025	1.928	0.027	0.016	-0.006
0.117	24.887	-0.119	-0.132	-0.019	0.054	0.889	0.518	0.487	1.119	2.008	1.927	0.025	0.021	-0.001
0.117	24.869	-0.122	-0.134	-0.023	0.054	0.868	0.517	0.555	1.131	2.021	1.918	0.024	0.027	0.005
0.117	24.893	-0.124	-0.134	-0.028	0.056	0.856	0.507	0.604	1.144	2.017	1.926	0.023	0.031	0.010
0.118	24.887	-0.123	-0.134	-0.036	0.061	0.844	0.463	0.613	1.128	2.017	1.922	0.022	0.035	0.015
0.118	24.866	-0.121	-0.135	-0.042	0.063	0.832	0.423	0.541	1.087	2.021	1.928	0.020	0.037	0.018
0.118	24.915	-0.123	-0.137	-0.051	0.071	0.834	0.400	0.486	1.079	2.020	1.925	0.021	0.040	0.021
0.118	24.893	-0.124	-0.138	-0.059	0.074	0.841	0.399	0.462	1.067	2.021	1.916	0.018	0.042	0.023
0.118	24.908	-0.127	-0.140	-0.066	0.079	0.845	0.435	0.488	1.077	2.018	1.923	0.019	0.041	0.023
0.119	24.911	-0.128	-0.143	-0.079	0.086	0.837	0.450	0.562	1.142	2.029	1.917	0.017	0.042	0.024
0.119	24.911	-0.129	-0.146	-0.088	0.094	0.820	0.444	0.603	1.178	2.020	1.922	0.018	0.040	0.023
0.119	24.930	-0.127	-0.149	-0.102	0.099	0.798	0.422	0.623	1.250	2.012	1.915	0.017	0.039	0.021
0.119	24.915	-0.127	-0.151	-0.110	0.103	0.764	0.365	0.580	1.309	2.013	1.919	0.016	0.039	0.019
0.119	24.924	-0.126	-0.153	-0.121	0.107	0.723	0.320	0.524	1.322	2.020	1.912	0.016	0.034	0.016
0.120	24.939	-0.122	-0.155	-0.131	0.113	0.707	0.291	0.445	1.299	2.025	1.913	0.016	0.031	0.012
0.120	24.933	-0.124	-0.158	-0.139	0.113	0.658	0.299	0.437	1.257	2.024	1.917	0.017	0.028	0.008
0.120	24.930	-0.123	-0.158	-0.147	0.115	0.671	0.317	0.494	1.214	2.019	1.917	0.018	0.025	0.004
0.120	24.933	-0.124	-0.162	-0.153	0.115	0.654	0.346	0.566	1.193	2.021	1.915	0.017	0.021	-0.001
0.120	24.927	-0.122	-0.162	-0.158	0.112	0.660	0.334	0.583	1.184	2.023	1.913	0.018	0.018	-0.008
0.121	24.930	-0.126	-0.166	-0.163	0.108	0.675	0.350	0.544	1.213	2.020	1.924	0.019	0.015	-0.013
0.121	24.942	-0.124	-0.169	-0.166	0.098	0.640	0.311	0.468	1.221	2.018	1.910	0.018	0.013	-0.016
0.121	24.924	-0.118	-0.166	-0.165	0.087	0.618	0.282	0.372	1.229	2.017	1.907	0.019	0.012	-0.022
0.121	24.945	-0.119	-0.170	-0.163	0.075	0.665	0.290	0.314	1.191	2.025	1.906	0.018	0.011	-0.026
0.121	24.933	-0.116	-0.169	-0.158	0.057	0.678	0.339	0.342	1.120	2.010	1.910	0.018	0.011	-0.030
0.122	24.924	-0.112	-0.169	-0.151	0.040	0.692	0.374	0.432	1.068	2.018	1.905	0.016	0.012	-0.033
0.122	24.951	-0.109	-0.168	-0.146	0.022	0.704	0.405	0.528	1.065	2.014	1.902	0.014	0.014	-0.034
0.122	24.939	-0.111	-0.166	-0.140	0.000	0.679	0.419	0.571	1.102	2.019	1.905	0.014	0.017	-0.038
0.122	24.948	-0.107	-0.166	-0.131	-0.019	0.671	0.401	0.545	1.204	2.018	1.903	0.013	0.020	-0.038
0.122	24.942	-0.106	-0.166	-0.123	-0.039	0.658	0.373	0.514	1.247	2.017	1.911	0.012	0.024	-0.039
0.123	24.973	-0.104	-0.164	-0.114	-0.056	0.674	0.366	0.436	1.292	2.014	1.901	0.011	0.031	-0.041
0.123	24.945	-0.102	-0.163	-0.107	-0.071	0.736	0.392	0.361	1.285	2.008	1.902	0.009	0.035	-0.040
0.123	24.966	-0.098	-0.164	-0.097	-0.084	0.761	0.412	0.347	1.263	2.007	1.900	0.008	0.042	-0.040
0.123	24.951	-0.093	-0.162	-0.090	-0.094	0.840	0.484	0.386	1.217	2.016	1.903	0.007	0.049	-0.039
0.123	24.957	-0.091	-0.166	-0.081	-0.098	0.844	0.506	0.469	1.200	2.012	1.896	0.007	0.055	-0.036
0.124	24.976	-0.088	-0.166	-0.077	-0.100	0.804	0.528	0.476	1.232	2.009	1.899	0.006	0.060	-0.035
0.124	24.963	-0.085	-0.168	-0.073	-0.100	0.726	0.494	0.460	1.298	2.009	1.898	0.006	0.066	-0.034
0.124	24.951	-0.084	-0.170	-0.072	-0.092	0.668	0.480	0.400	1.373	2.011	1.896	0.007	0.070	-0.031
0.124	24.966	-0.081	-0.173	-0.074	-0.084	0.643	0.473	0.346	1.408	1.999	1.902	0.006	0.074	-0.030
0.124	24.966	-0.078	-0.174	-0.072	-0.068	0.684	0.505	0.334	1.393	2.008	1.898	0.006	0.076	-0.027
0.125	24.963	-0.076	-0.175	-0.077	-0.051	0.789	0.556	0.365	1.337	2.015	1.901	0.008	0.076	-0.027
0.125	24.973	-0.073	-0.178	-0.081	-0.032	0.852	0.586	0.465	1.271	2.014	1.890	0.009	0.079	-0.024
0.125	24.951	-0.071	-0.179	-0.086	-0.011	0.831	0.590	0.578	1.299	2.010	1.891	0.012	0.075	-0.023
0.125	24.976	-0.068	-0.179	-0.091	0.009	0.749	0.544	0.615	1.357	2.004	1.891	0.014	0.075	-0.020
0.125	24.976	-0.066	-0.179	-0.094	0.032	0.645	0.493	0.643	1.448	2.005	1.891	0.018	0.073	-0.018
0.126	24.957	-0.062	-0.181	-0.095	0.053	0.586	0.456	0.595	1.481	2.005	1.889	0.021	0.073	-0.014
0.126	24.985	-0.060	-0.182	-0.097	0.074	0.592	0.435	0.560	1.463	2.009	1.893	0.026	0.071	-0.013
0.126	24.954	-0.056	-0.181	-0.094	0.091	0.633	0.453	0.541	1.409	2.013	1.892	0.031	0.070	-0.008
0.126	24.973	-0.051	-0.181	-0.091	0.109	0.708	0.481	0.551	1.326	2.001	1.890	0.035	0.068	-0.004
0.126	24.951	-0.050	-0.180	-0.084	0.119	0.760	0.504	0.575	1.261	1.999	1.890	0.041	0.066	-0.002
0.127	24.933	-0.047	-0.178	-0.076	0.128	0.822	0.505	0.606	1.246	2.002	1.886	0.047	0.066	0.003
0.127	24.966	-0.045	-0.175	-0.064	0.137	0.813	0.445	0.626	1.253	2.008	1.880	0.051	0.066	0.005
0.127	24.945	-0.046	-0.171	-0.052	0.137	0.761	0.401	0.619	1.276	2.007	1.884	0.055	0.066	0.008
0.127	24.957	-0.045	-0.169	-0.038	0.139	0.700	0.343	0.555	1.274	2.005	1.883	0.059	0.066	0.011
0.127	24.948	-0.044	-0.165	-0.024	0.137	0.655	0.311	0.489	1.257	1.997	1.884	0.064	0.067	0.012
0.128	24.942	-0.044	-0.160	-0.010	0.134	0.659	0.312	0.439	1.268	2.001	1.883	0.069	0.067	0.014
0.128	24.963	-0.041	-0.156	0.004	0.129	0.684	0.313	0.446	1.270	2.005	1.883	0.073	0.067	0.014
0.128	24.954	-0.037	-0.149	0.018	0.123	0.707	0.326	0.485	1.304	1.999	1.885	0.078	0.068	0.011
0.128	24.942	-0.035	-0.146	0.031	0.117	0.706	0.298	0.500	1.347	2.002	1.886	0.082	0.067	0.011
0.128	24.963	-0.033	-0.141	0.041	0.111	0.683	0.264	0.512	1.431	2.003	1.879	0.089	0.067	0.009
0.129	24.948	-0.033	-0.138	0.050	0.107	0.628	0.233	0.490	1.513	2.000	1.876	0.094	0.066	0.005
0.129	24.951	-0.033	-0.135	0.061	0.105	0.587	0.196	0.427	1.574	1.996	1.873	0.098	0.067	0.000
0.129	24.957	-0.037	-0.132	0.069	0.104	0.584	0.180	0.387	1.560	1.993	1.874	0.102	0.066	-0.005
0.129	24.973	-0.039	-0.129	0.074	0.106	0.595	0.148	0.340	1.542	2.000	1.876	0.107	0.064	-0.010
0.129	24.966	-0.043	-0.125	0.079	0.108	0.590	0.147	0.363	1.519	1.991	1.875	0.112	0.065	-0.015
0.130	24.948	-0.043	-0.121	0.082	0.111	0.574	0.143	0.384	1.469	1.997	1.886	0.117	0.064	-0.023
0.130	24.948	-0.044	-0.118	0.085	0.116	0.531	0.132	0.388	1.496	1.990	1.873	0.121	0.061	-0.028
0.130	24.966	-0.045	-0.115	0.084	0.123	0.489	0.133	0.373	1.544	2.001	1.875	0.126	0.062	-0.036
0.130	24.936	-0.045	-0.111	0.085	0.126	0.448	0.140	0.343	1.590	1.994	1.874	0.131	0.061	-0.043
0.130	24.954	-0.046	-0.111	0.085	0.125	0.449	0.129	0.335	1.631	1.996	1.873	0.135	0.061	-0.047
0.131	24.933	-0.045	-0.108	0.083	0.133	0.474	0.123	0.337	1.649	1.992	1.883	0.140	0.061	-0.052
0.131	24.948	-0.046	-0.108	0.082	0.138	0.530	0.099	0.348	1.658	1.999	1.868	0.145	0.060	-0.055
0.131	24.924	-0.049	-0.103	0.080	0.138	0.567	0.102	0.347	1.674	1.996	1.875	0.148	0.060	-0.057
0.131	24.936	-0.051	-0.101	0.081	0.142	0.574	0.095	0.338	1.648	1.984	1.869	0.153	0.060	-0.059
0.131	24.924	-0.053	-0.099	0.081	0.142	0.554	0.118	0.335	1.660	1.989	1.858	0.156	0.061	-0.061
0.132	24.930	-0.057	-0.096	0.080	0.143	0.497	0.150	0.372	1.701	1.989	1.870	0.159	0.062	-0.062
0.132	24.927	-0.058	-0.094	0.080	0.147	0.470	0.213	0.363	1.724	1.994	1.868	0.162	0.063	-0.061
0.132	24.915	-0.061	-0.090	0.077	0.151	0.444	0.257	0.354	1.744	1.992	1.869	0.165	0.064	-0.060
0.132	24.927	-0.063	-0.086	0.079	0.156	0.453	0.283	0.317	1.700	1.991	1.865	0.168	0.066	-0.059
0.132	24.915	-0.063	-0.082	0.075	0.160	0.534	0.267	0.306	1.681	1.993	1.862	0.168	0.065	-0.056
0.133	24.927	-0.065	-0.079	0.071	0.166	0.573	0.235	0.306	1.685	1.992	1.869	0.168	0.069	-0.052
0.133	24.915	-0.066	-0.073	0.070	0.174	0.560	0.238	0.312	1.732	1.985	1.871	0.169	0.071	-0.053
0.133	24.905	-0.069	-0.070	0.066	0.183	0.499	0.243	0.283	1.807	1.994	1.863	0.168	0.072	-0.049
0.133	24.905	-0.071	-0.067	0.060	0.191	0.388	0.304	0.293	1.854	1.995	1.867	0.168	0.073	-0.048
0.133	24.905	-0.073	-0.064	0.054	0.202	0.292	0.349	0.300	1.875	1.994	1.870	0.167	0.075	-0.044
0.134	24.893	-0.076	-0.062	0.047	0.213	0.243	0.396	0.323	1.866	1.994	1.865	0.163	0.075	-0.043
0.134	24.908	-0.078	-0.061	0.040	0.224	0.272	0.401	0.347	1.842	1.988	1.868	0.160	0.077	-0.040
0.134	24.908	-0.080	-0.059	0.033	0.237	0.344	0.420	0.362	1.801	1.987	1.860	0.156	0.079	-0.041
0.134	24.884	-0.082	-0.058	0.024	0.244	0.403	0.417	0.366	1.765	1.987	1.861	0.151	0.079	-0.042
0.134	24.899	-0.081	-0.057	0.016	0.255	0.459	0.422	0.389	1.771	1.988	1.862	0.146	0.080	-0.041
0.135	24.893	-0.082	-0.056	0.008	0.263	0.413	0.463	0.424	1.766	1.992	1.864	0.141	0.080	-0.043
0.135	24.881	-0.081	-0.056	-0.002	0.270	0.377	0.520	0.453	1.749	1.994	1.851	0.135	0.080	-0.045
0.135	24.893	-0.085	-0.055	-0.010	0.274	0.301	0.583	0.478	1.720	1.988	1.862	0.130	0.082	-0.046
0.135	24.887	-0.087	-0.053	-0.018	0.276	0.300	0.615	0.490	1.712	1.992	1.858	0.125	0.083	-0.048
0.135	24.863	-0.090	-0.051	-0.025	0.278	0.300	0.597	0.473	1.712	1.988	1.854	0.118	0.084	-0.047
0.136	24.887	-0.094	-0.048	-0.033	0.279	0.349	0.549	0.464	1.720	1.991	1.854	0.114	0.085	-0.049
0.136	24.866	-0.096	-0.044	-0.042	0.276	0.416	0.540	0.449	1.724	1.986	1.858	0.109	0.087	-0.049
0.136	24.863	-0.099	-0.041	-0.050	0.275	0.431	0.520	0.446	1.755	1.987	1.851	0.105	0.090	-0.048
0.136	24.878	-0.101	-0.038	-0.058	0.269	0.405	0.561	0.448	1.769	1.993	1.861	0.102	0.093	-0.048
0.136	24.860	-0.101	-0.035	-0.065	0.267	0.362	0.605	0.450	1.762	1.989	1.862	0.098	0.095	-0.046
0.137	24.887	-0.102	-0.032	-0.072	0.264	0.330	0.646	0.481	1.773	1.986	1.853	0.097	0.100	-0.044
0.137	24.863	-0.102	-0.027	-0.079	0.258	0.329	0.667	0.506	1.761	1.992	1.856	0.094	0.103	-0.042
0.137	24.866	-0.102	-0.025	-0.085	0.253	0.337	0.639	0.521	1.783	1.988	1.857	0.095	0.106	-0.039
0.137	24.875	-0.102	-0.021	-0.091	0.246	0.343	0.584	0.526	1.806	1.978	1.855	0.095	0.111	-0.036
0.137	24.869	-0.099	-0.019	-0.094	0.239	0.336	0.532	0.493	1.804	1.982	1.852	0.096	0.115	-0.031
0.138	24.872	-0.101	-0.015	-0.097	0.230	0.283	0.510	0.507	1.843	1.981	1.859	0.098	0.119	-0.027
0.138	24.863	-0.101	-0.013	-0.101	0.221	0.215	0.507	0.520	1.864	1.990	1.857	0.098	0.121	-0.023
0.138	24.887	-0.102	-0.013	-0.105	0.210	0.163	0.525	0.529	1.884	1.991	1.847	0.101	0.125	-0.018
0.138	24.872	-0.103	-0.011	-0.107	0.197	0.138	0.523	0.553	1.923	1.991	1.851	0.102	0.129	-0.013
0.138	24.872	-0.102	-0.011	-0.111	0.183	0.149	0.492	0.555	1.899	1.982	1.852	0.104	0.129	-0.010
0.139	24.881	-0.101	-0.013	-0.115	0.167	0.189	0.443	0.573	1.882	1.999	1.857	0.106	0.129	-0.007
0.139	24.872	-0.097	-0.015	-0.118	0.150	0.223	0.389	0.528	1.900	1.988	1.847	0.107	0.130	-0.003
0.139	24.878	-0.094	-0.018	-0.124	0.131	0.208	0.330	0.488	1.911	1.992	1.841	0.109	0.131	-0.001
0.139	24.878	-0.092	-0.020	-0.129	0.112	0.163	0.319	0.411	1.917	1.989	1.851	0.110	0.128	0.000
0.139	24.881	-0.090	-0.022	-0.133	0.092	0.093	0.340	0.373	1.916	1.984	1.855	0.110	0.124	-0.000
0.140	24.896	-0.088	-0.027	-0.139	0.071	0.037	0.363	0.360	1.890	1.987	1.850	0.110	0.121	0.001
0.140	24.878	-0.084	-0.029	-0.145	0.049	0.022	0.347	0.379	1.876	1.985	1.850	0.111	0.117	-0.000
0.140	24.881	-0.082	-0.036	-0.151	0.030	0.033	0.344	0.356	1.877	1.988	1.850	0.110	0.113	-0.002
0.140	24.887	-0.079	-0.039	-0.157	0.010	0.069	0.310	0.299	1.888	1.993	1.851	0.108	0.106	-0.006
0.140	24.893	-0.076	-0.042	-0.163	-0.010	0.096	0.291	0.237	1.934	1.986	1.846	0.108	0.100	-0.010
0.141	24.905	-0.073	-0.046	-0.171	-0.028	0.097	0.260	0.190	1.967	1.984	1.848	0.106	0.094	-0.016
0.141	24.878	-0.067	-0.047	-0.177	-0.046	0.100	0.262	0.183	1.991	1.989	1.840	0.105	0.088	-0.023
0.141	24.899	-0.064	-0.049	-0.185	-0.061	0.090	0.272	0.214	2.001	1.993	1.840	0.102	0.082	-0.031
0.141	24.924	-0.062	-0.052	-0.189	-0.074	0.073	0.299	0.230	2.033	1.984	1.839	0.100	0.078	-0.039
0.141	24.890	-0.057	-0.056	-0.193	-0.085	0.081	0.311	0.215	2.046	1.985	1.847	0.098	0.072	-0.047
0.142	24.927	-0.054	-0.058	-0.197	-0.093	0.081	0.287	0.214	2.085	1.975	1.846	0.096	0.069	-0.056
0.142	24.915	-0.050	-0.059	-0.199	-0.100	0.089	0.257	0.180	2.080	1.987	1.846	0.094	0.067	-0.065
0.142	24.918	-0.045	-0.060	-0.198	-0.104	0.129	0.231	0.135	2.090	1.992	1.845	0.092	0.064	-0.075
0.142	24.939	-0.041	-0.060	-0.197	-0.107	0.148	0.228	0.086	2.099	1.983	1.845	0.089	0.064	-0.084
0.142	24.921	-0.038	-0.060	-0.195	-0.108	0.159	0.251	0.052	2.077	1.978	1.844	0.088	0.064	-0.092
0.143	24.930	-0.031	-0.060	-0.190	-0.109	0.183	0.281	0.057	2.046	1.993	1.841	0.086	0.063	-0.100
0.143	24.921	-0.029	-0.060	-0.186	-0.110	0.156	0.303	0.076	1.998	1.982	1.836	0.083	0.067	-0.106
0.143	24.921	-0.026	-0.059	-0.180	-0.108	0.162	0.326	0.114	1.952	1.984	1.841	0.081	0.069	-0.113
0.143	24.939	-0.026	-0.062	-0.172	-0.108	0.159	0.311	0.121	1.912	1.982	1.838	0.078	0.073	-0.116
0.143	24.936	-0.025	-0.060	-0.165	-0.105	0.165	0.298	0.113	1.919	1.990	1.843	0.077	0.076	-0.122
0.144	24.939	-0.022	-0.061	-0.158	-0.103	0.208	0.283	0.102	1.919	1.986	1.839	0.072	0.081	-0.124
0.144	24.939	-0.021	-0.061	-0.151	-0.101	0.243	0.291	0.141	1.936	1.984	1.833	0.069	0.085	-0.126
0.144	24.936	-0.018	-0.062	-0.142	-0.097	0.304	0.303	0.163	1.962	1.983	1.844	0.064	0.089	-0.127
0.144	24.948	-0.016	-0.064	-0.135	-0.094	0.349	0.330	0.199	1.974	1.985	1.840	0.061	0.092	-0.125
0.144	24.933	-0.014	-0.066	-0.128	-0.090	0.405	0.346	0.205	1.969	1.975	1.839	0.058	0.095	-0.123
0.145	24.942	-0.014	-0.068	-0.120	-0.086	0.443	0.375	0.246	1.953	1.982	1.845	0.052	0.099	-0.119
0.145	24.939	-0.014	-0.071	-0.114	-0.083	0.457	0.383	0.264	1.930	1.975	1.843	0.050	0.102	-0.116
0.145	24.936	-0.012	-0.071	-0.106	-0.080	0.460	0.388	0.247	1.907	1.983	1.834	0.046	0.104	-0.112
0.145	24.939	-0.013	-0.075	-0.102	-0.078	0.444	0.387	0.217	1.862	1.979	1.843	0.042	0.108	-0.107
0.145	24.927	-0.010	-0.072	-0.096	-0.075	0.450	0.407	0.211	1.818	1.986	1.839	0.041	0.106	-0.104
0.146	24.942	-0.007	-0.072	-0.092	-0.074	0.443	0.437	0.226	1.775	1.984	1.838	0.038	0.106	-0.097
0.146	24.963	-0.005	-0.072	-0.090	-0.073	0.457	0.492	0.258	1.771	1.978	1.833	0.038	0.106	-0.091
0.146	24.933	-0.001	-0.072	-0.086	-0.072	0.474	0.509	0.260	1.793	1.976	1.833	0.036	0.104	-0.084
0.146	24.945	0.002	-0.071	-0.081	-0.069	0.486	0.499	0.233	1.855	1.981	1.828	0.036	0.103	-0.079
0.146	24.936	0.002	-0.069	-0.079	-0.067	0.489	0.521	0.199	1.871	1.976	1.826	0.038	0.100	-0.075
0.147	24.918	0.000	-0.069	-0.077	-0.064	0.492	0.540	0.169	1.875	1.982	1.834	0.040	0.097	-0.070
0.147	24.933	0.001	-0.067	-0.073	-0.060	0.473	0.537	0.184	1.882	1.977	1.831	0.043	0.094	-0.065
0.147	24.905	0.005	-0.067	-0.070	-0.057	0.478	0.559	0.195	1.857	1.984	1.832	0.047	0.090	-0.060
0.147	24.945	0.004	-0.066	-0.068	-0.049	0.473	0.605	0.197	1.829	1.972	1.825	0.050	0.088	-0.056
0.147	24.921	0.005	-0.066	-0.066	-0.042	0.462	0.647	0.180	1.817	1.970	1.823	0.054	0.083	-0.051
0.148	24.918	0.008	-0.063	-0.063	-0.034	0.454	0.692	0.180	1.834	1.987	1.832	0.059	0.080	-0.048
0.148	24.945	0.008	-0.061	-0.060	-0.024	0.470	0.700	0.162	1.837	1.983	1.830	0.063	0.075	-0.046
0.148	24.930	0.011	-0.059	-0.058	-0.015	0.462	0.702	0.138	1.819	1.979	1.829	0.068	0.072	-0.041
0.148	24.954	0.011	-0.058	-0.055	-0.002	0.458	0.695	0.090	1.785	1.976	1.830	0.073	0.068	-0.040
0.148	24.954	0.010	-0.054	-0.054	0.009	0.457	0.699	0.041	1.753	1.977	1.830	0.077	0.065	-0.038
0.149	24.942	0.010	-0.050	-0.051	0.023	0.462	0.705	0.040	1.732	1.972	1.823	0.082	0.062	-0.036
0.149	24.960	0.010	-0.049	-0.050	0.035	0.475	0.725	0.023	1.742	1.977	1.832	0.086	0.060	-0.033
0.149	24.948	0.008	-0.046	-0.047	0.050	0.485	0.739	0.058	1.762	1.965	1.834	0.091	0.059	-0.033
0.149	24.951	0.010	-0.046	-0.042	0.062	0.500	0.747	0.074	1.765	1.968	1.834	0.093	0.058	-0.032
0.149	24.951	0.009	-0.044	-0.039	0.076	0.502	0.743	0.100	1.750	1.969	1.827	0.097	0.056	-0.032
0.150	24.957	0.008	-0.042	-0.035	0.087	0.509	0.727	0.135	1.761	1.965	1.828	0.099	0.056	-0.031
0.150	24.969	0.008	-0.039	-0.030	0.098	0.508	0.724	0.196	1.719	1.967	1.830	0.100	0.057	-0.034
0.150	24.954	0.007	-0.038	-0.026	0.108	0.517	0.698	0.194	1.700	1.974	1.832	0.102	0.058	-0.036
0.150	24.963	0.005	-0.036	-0.021	0.117	0.534	0.695	0.192	1.672	1.970	1.821	0.102	0.057	-0.036
0.150	24.963	0.003	-0.034	-0.017	0.125	0.543	0.694	0.154	1.704	1.974	1.818	0.103	0.058	-0.039
0.151	24.957	0.000	-0.032	-0.010	0.133	0.554	0.689	0.098	1.714	1.973	1.824	0.101	0.062	-0.043
0.151	24.969	-0.003	-0.032	-0.004	0.136	0.559	0.669	0.104	1.705	1.972	1.829	0.097	0.062	-0.047
0.151	24.991	-0.004	-0.032	0.000	0.142	0.572	0.641	0.087	1.680	1.968	1.823	0.097	0.064	-0.053
0.151	24.973	-0.004	-0.031	0.005	0.145	0.557	0.615	0.168	1.665	1.964	1.832	0.092	0.064	-0.056
0.151	24.960	-0.006	-0.032	0.009	0.148	0.559	0.590	0.199	1.678	1.971	1.835	0.087	0.066	-0.061
0.152	24.963	-0.006	-0.033	0.010	0.150	0.572	0.577	0.226	1.682	1.959	1.824	0.081	0.067	-0.065
0.152	24.960	-0.007	-0.033	0.013	0.152	0.574	0.548	0.210	1.711	1.970	1.824	0.075	0.069	-0.071
0.152	24.976	-0.008	-0.034	0.014	0.153	0.590	0.577	0.186	1.786	1.960	1.831	0.071	0.070	-0.077
0.152	24.942	-0.009	-0.035	0.012	0.153	0.606	0.556	0.171	1.810	1.976	1.826	0.064	0.071	-0.082
0.152	24.948	-0.013	-0.035	0.010	0.156	0.621	0.556	0.167	1.847	1.970	1.818	0.057	0.072	-0.087
0.153	24.969	-0.014	-0.035	0.006	0.156	0.614	0.525	0.184	1.835	1.969	1.814	0.053	0.071	-0.092
0.153	24.948	-0.013	-0.036	-0.001	0.158	0.667	0.487	0.237	1.821	1.973	1.820	0.045	0.071	-0.095
0.153	24.954	-0.019	-0.035	-0.007	0.157	0.648	0.466	0.278	1.787	1.971	1.824	0.037	0.074	-0.101
0.153	24.948	-0.016	-0.035	-0.015	0.156	0.671	0.443	0.267	1.730	1.969	1.822	0.030	0.073	-0.103
0.153	24.957	-0.020	-0.037	-0.026	0.158	0.687	0.435	0.233	1.685	1.965	1.824	0.023	0.074	-0.107
0.154	24.945	-0.021	-0.035	-0.038	0.157	0.703	0.434	0.215	1.675	1.973	1.824	0.018	0.074	-0.109
0.154	24.939	-0.023	-0.036	-0.048	0.158	0.741	0.433	0.193	1.682	1.964	1.823	0.012	0.072	-0.108
0.154	24.954	-0.026	-0.037	-0.062	0.161	0.803	0.428	0.189	1.717	1.964	1.820	0.007	0.073	-0.108
0.154	24.954	-0.030	-0.036	-0.080	0.161	0.848	0.415	0.214	1.771	1.963	1.824	0.004	0.073	-0.108
0.154	24.960	-0.035	-0.035	-0.091	0.163	0.869	0.407	0.227	1.792	1.972	1.821	0.001	0.072	-0.106
0.155	24.951	-0.038	-0.035	-0.107	0.162	0.853	0.409	0.205	1.750	1.975	1.819	-0.002	0.073	-0.105
0.155	24.951	-0.040	-0.036	-0.121	0.166	0.812	0.420	0.168	1.692	1.968	1.811	-0.002	0.073	-0.102
0.155	24.960	-0.041	-0.034	-0.137	0.167	0.780	0.439	0.137	1.616	1.968	1.821	-0.001	0.073	-0.100
0.155	24.948	-0.041	-0.036	-0.150	0.166	0.764	0.449	0.117	1.595	1.972	1.820	-0.001	0.072	-0.094
0.155	24.942	-0.045	-0.035	-0.164	0.168	0.780	0.448	0.108	1.599	1.963	1.815	0.001	0.073	-0.090
0.156	24.976	-0.046	-0.037	-0.177	0.170	0.817	0.448	0.107	1.638	1.968	1.823	0.003	0.072	-0.084
0.156	24.960	-0.049	-0.038	-0.188	0.168	0.853	0.433	0.122	1.684	1.963	1.816	0.007	0.071	-0.078
0.156	24.969	-0.054	-0.037	-0.201	0.170	0.872	0.450	0.163	1.686	1.973	1.819	0.011	0.073	-0.073
0.156	24.945	-0.057	-0.040	-0.211	0.166	0.866	0.482	0.186	1.714	1.978	1.820	0.015	0.072	-0.066
0.156	24.960	-0.059	-0.040	-0.217	0.165	0.859	0.525	0.196	1.692	1.970	1.823	0.021	0.071	-0.059
0.157	24.951	-0.057	-0.043	-0.224	0.159	0.822	0.570	0.175	1.728	1.967	1.822	0.026	0.070	-0.053
0.157	24.951	-0.059	-0.043	-0.229	0.152	0.810	0.605	0.138	1.695	1.965	1.828	0.031	0.068	-0.048
0.157	24.979	-0.058	-0.044	-0.237	0.145	0.815	0.613	0.175	1.716	1.961	1.826	0.036	0.067	-0.042
0.157	24.948	-0.058	-0.045	-0.239	0.135	0.844	0.619	0.213	1.726	1.963	1.820	0.040	0.065	-0.038
0.157	24.951	-0.060	-0.046	-0.245	0.125	0.857	0.617	0.251	1.736	1.967	1.822	0.045	0.061	-0.034
0.158	24.960	-0.061	-0.046	-0.248	0.111	0.898	0.632	0.247	1.725	1.963	1.821	0.050	0.059	-0.031
0.158	24.945	-0.064	-0.048	-0.250	0.097	0.923	0.658	0.235	1.672	1.965	1.823	0.054	0.056	-0.030
0.158	24.963	-0.064	-0.048	-0.254	0.078	0.936	0.692	0.211	1.636	1.966	1.820	0.057	0.052	-0.029
0.158	24.954	-0.064	-0.051	-0.257	0.060	0.955	0.727	0.195	1.589	1.964	1.824	0.060	0.048	-0.028
0.158	24.973	-0.063	-0.051	-0.255	0.041	0.990	0.754	0.183	1.537	1.970	1.817	0.062	0.045	-0.030
0.159	24.942	-0.064	-0.055	-0.255	0.016	1.033	0.799	0.199	1.523	1.969	1.819	0.065	0.043	-0.032
0.159	24.948	-0.062	-0.057	-0.253	-0.009	1.088	0.809	0.258	1.528	1.961	1.822	0.066	0.039	-0.035
0.159	24.915	-0.063	-0.061	-0.252	-0.035	1.117	0.866	0.350	1.564	1.972	1.822	0.067	0.037	-0.038
0.159	24.951	-0.060	-0.064	-0.250	-0.060	1.092	0.858	0.416	1.602	1.961	1.824	0.068	0.035	-0.043
0.159	24.954	-0.058	-0.067	-0.252	-0.088	1.091	0.887	0.419	1.622	1.962	1.820	0.069	0.034	-0.048
0.160	24.960	-0.058	-0.070	-0.250	-0.113	1.042	0.907	0.397	1.620	1.977	1.819	0.069	0.033	-0.054
0.160	24.966	-0.056	-0.072	-0.251	-0.137	1.050	0.937	0.338	1.616	1.963	1.815	0.071	0.032	-0.061
0.160	24.976	-0.053	-0.075	-0.249	-0.161	1.052	0.958	0.327	1.662	1.968	1.818	0.071	0.034	-0.065
0.160	24.960	-0.048	-0.076	-0.250	-0.180	1.094	0.973	0.335	1.690	1.968	1.815	0.072	0.034	-0.073
0.160	24.960	-0.045	-0.078	-0.249	-0.198	1.090	0.987	0.350	1.680	1.964	1.817	0.072	0.038	-0.081
0.161	24.960	-0.037	-0.080	-0.250	-0.215	1.105	1.018	0.356	1.658	1.972	1.818	0.073	0.038	-0.089
0.161	24.976	-0.033	-0.083	-0.251	-0.229	1.087	1.035	0.337	1.626	1.964	1.815	0.074	0.040	-0.096
0.161	24.957	-0.028	-0.086	-0.251	-0.241	1.067	1.040	0.291	1.619	1.966	1.810	0.074	0.042	-0.102
0.161	24.963	-0.029	-0.087	-0.249	-0.253	1.022	1.035	0.243	1.619	1.981	1.815	0.074	0.044	-0.111
0.161	24.982	-0.028	-0.090	-0.250	-0.262	1.005	1.013	0.187	1.622	1.970	1.805	0.075	0.048	-0.118
0.162	24.969	-0.025	-0.090	-0.246	-0.266	1.025	1.002	0.165	1.620	1.960	1.815	0.074	0.050	-0.123
0.162	24.973	-0.024	-0.094	-0.242	-0.268	1.056	0.978	0.175	1.601	1.968	1.819	0.073	0.051	-0.131
0.162	24.966	-0.021	-0.095	-0.241	-0.267	1.101	0.949	0.238	1.584	1.967	1.811	0.071	0.054	-0.137
0.162	24.991	-0.016	-0.096	-0.237	-0.264	1.117	0.945	0.278	1.556	1.963	1.820	0.072	0.055	-0.143
0.162	24.966	-0.011	-0.099	-0.231	-0.257	1.113	0.946	0.279	1.538	1.964	1.809	0.069	0.056	-0.148
0.163	24.985	-0.010	-0.100	-0.224	-0.247	1.064	0.946	0.231	1.529	1.961	1.817	0.066	0.056	-0.154
0.163	24.976	-0.005	-0.102	-0.217	-0.237	1.034	0.946	0.174	1.524	1.967	1.818	0.064	0.054	-0.159
0.163	24.979	-0.005	-0.107	-0.210	-0.223	1.025	0.934	0.138	1.526	1.961	1.817	0.061	0.055	-0.162
0.163	24.982	-0.003	-0.107	-0.202	-0.213	1.011	0.942	0.160	1.508	1.962	1.815	0.059	0.052	-0.168
0.163	25.000	-0.001	-0.109	-0.191	-0.200	1.079	0.897	0.247	1.480	1.966	1.813	0.054	0.049	-0.171
0.164	25.000	-0.002	-0.113	-0.179	-0.188	1.103	0.885	0.334	1.494	1.960	1.820	0.051	0.046	-0.175
0.164	25.009	-0.002	-0.114	-0.171	-0.177	1.136	0.873	0.387	1.507	1.972	1.807	0.047	0.042	-0.178
0.164	25.009	0.001	-0.114	-0.162	-0.169	1.136	0.848	0.366	1.523	1.961	1.815	0.042	0.038	-0.181
0.164	25.000	0.003	-0.116	-0.153	-0.159	1.115	0.809	0.327	1.555	1.954	1.819	0.038	0.034	-0.183
0.164	25.009	0.004	-0.114	-0.143	-0.151	1.106	0.795	0.286	1.608	1.966	1.815	0.034	0.029	-0.187
0.165	25.006	0.005	-0.113	-0.137	-0.144	1.118	0.784	0.260	1.631	1.951	1.816	0.030	0.024	-0.188
0.165	25.024	0.004	-0.113	-0.132	-0.137	1.115	0.779	0.295	1.620	1.957	1.813	0.027	0.020	-0.189
0.165	25.024	0.003	-0.111	-0.127	-0.131	1.127	0.817	0.355	1.592	1.955	1.809	0.024	0.016	-0.189
0.165	25.015	0.002	-0.112	-0.123	-0.126	1.126	0.836	0.374	1.588	1.955	1.815	0.019	0.011	-0.190
0.165	25.021	-0.001	-0.111	-0.123	-0.123	1.130	0.835	0.334	1.577	1.955	1.813	0.017	0.008	-0.190
0.166	25.009	-0.002	-0.108	-0.120	-0.120	1.138	0.841	0.238	1.591	1.963	1.819	0.015	0.005	-0.190
0.166	25.021	0.002	-0.109	-0.116	-0.118	1.184	0.821	0.141	1.632	1.967	1.811	0.013	0.001	-0.189
0.166	25.015	0.003	-0.108	-0.113	-0.119	1.239	0.812	0.105	1.642	1.954	1.807	0.012	-0.002	-0.187
0.166	25.009	0.006	-0.106	-0.106	-0.120	1.324	0.825	0.130	1.621	1.951	1.811	0.012	-0.004	-0.187
0.166	25.012	0.006	-0.105	-0.099	-0.124	1.390	0.835	0.213	1.602	1.962	1.823	0.012	-0.005	-0.185
0.167	25.021	0.007	-0.104	-0.092	-0.128	1.418	0.839	0.296	1.568	1.953	1.813	0.013	-0.005	-0.184
0.167	25.003	0.006	-0.102	-0.084	-0.131	1.402	0.860	0.369	1.556	1.954	1.807	0.014	-0.006	-0.183
0.167	25.009	0.002	-0.100	-0.077	-0.134	1.346	0.861	0.378	1.560	1.956	1.813	0.016	-0.006	-0.181
0.167	25.012	0.001	-0.098	-0.071	-0.137	1.310	0.869	0.355	1.561	1.957	1.814	0.018	-0.004	-0.181
0.167	24.991	-0.002	-0.095	-0.064	-0.139	1.312	0.870	0.257	1.576	1.952	1.811	0.020	-0.006	-0.180
0.168	25.018	-0.004	-0.091	-0.057	-0.141	1.354	0.869	0.207	1.551	1.962	1.814	0.022	-0.005	-0.179
0.168	25.000	-0.005	-0.089	-0.048	-0.140	1.410	0.877	0.226	1.498	1.961	1.808	0.025	-0.005	-0.178
0.168	25.015	-0.004	-0.086	-0.039	-0.137	1.453	0.892	0.279	1.466	1.944	1.808	0.028	-0.004	-0.179
0.168	25.006	-0.005	-0.081	-0.028	-0.136	1.460	0.914	0.327	1.440	1.956	1.812	0.030	-0.003	-0.178
0.168	25.000	-0.004	-0.078	-0.015	-0.132	1.450	0.928	0.316	1.434	1.953	1.814	0.032	-0.001	-0.178
0.169	25.021	-0.004	-0.074	-0.004	-0.127	1.420	0.918	0.272	1.437	1.952	1.815	0.035	-0.001	-0.179
0.169	25.009	-0.002	-0.069	0.010	-0.121	1.391	0.904	0.217	1.451	1.945	1.811	0.037	-0.000	-0.178
0.169	24.988	-0.003	-0.066	0.020	-0.114	1.386	0.897	0.148	1.462	1.940	1.810	0.041	0.000	-0.178
0.169	25.009	-0.004	-0.061	0.030	-0.106	1.401	0.896	0.156	1.475	1.956	1.809	0.042	0.000	-0.179
0.169	24.991	-0.005	-0.057	0.039	-0.097	1.404	0.919	0.199	1.490	1.959	1.814	0.044	0.002	-0.179
0.170	25.000	-0.008	-0.053	0.047	-0.088	1.422	0.940	0.280	1.476	1.945	1.814	0.046	0.002	-0.181
0.170	24.994	-0.008	-0.050	0.053	-0.076	1.410	0.941	0.363	1.462	1.949	1.809	0.045	0.002	-0.182
0.170	25.027	-0.011	-0.046	0.057	-0.066	1.398	0.947	0.410	1.443	1.948	1.812	0.046	0.005	-0.181
0.170	25.012	-0.009	-0.044	0.060	-0.055	1.415	0.918	0.375	1.414	1.952	1.811	0.048	0.004	-0.183
0.170	24.994	-0.009	-0.044	0.063	-0.044	1.422	0.894	0.330	1.408	1.944	1.807	0.049	0.005	-0.183
0.171	25.000	-0.009	-0.040	0.063	-0.034	1.440	0.862	0.330	1.434	1.943	1.807	0.051	0.005	-0.184
0.171	25.009	-0.011	-0.036	0.064	-0.028	1.433	0.845	0.350	1.444	1.937	1.807	0.052	0.005	-0.185
0.171	25.015	-0.012	-0.037	0.062	-0.023	1.416	0.825	0.427	1.456	1.951	1.814	0.052	0.008	-0.184
0.171	25.009	-0.014	-0.034	0.059	-0.019	1.401	0.819	0.530	1.447	1.945	1.813	0.052	0.010	-0.184
0.171	25.000	-0.016	-0.032	0.055	-0.018	1.384	0.783	0.594	1.420	1.937	1.810	0.052	0.013	-0.183
0.172	25.021	-0.020	-0.030	0.048	-0.016	1.363	0.763	0.616	1.403	1.945	1.812	0.054	0.015	-0.181
0.172	25.003	-0.023	-0.027	0.040	-0.018	1.362	0.763	0.590	1.380	1.950	1.807	0.055	0.018	-0.179
0.172	25.015	-0.021	-0.027	0.030	-0.020	1.373	0.731	0.525	1.374	1.945	1.811	0.055	0.023	-0.176
0.172	25.012	-0.021	-0.024	0.021	-0.019	1.397	0.717	0.496	1.362	1.938	1.813	0.056	0.027	-0.175
0.172	25.018	-0.020	-0.022	0.010	-0.021	1.399	0.723	0.507	1.351	1.948	1.811	0.057	0.030	-0.172
0.173	25.021	-0.021	-0.021	-0.003	-0.021	1.381	0.707	0.541	1.332	1.936	1.810	0.055	0.035	-0.168
0.173	25.018	-0.025	-0.017	-0.015	-0.019	1.340	0.693	0.577	1.332	1.944	1.811	0.059	0.040	-0.166
0.173	25.031	-0.023	-0.015	-0.026	-0.018	1.286	0.658	0.562	1.348	1.935	1.815	0.060	0.043	-0.164
0.173	25.021	-0.027	-0.014	-0.037	-0.015	1.238	0.628	0.499	1.395	1.936	1.806	0.061	0.049	-0.160
0.173	25.018	-0.028	-0.010	-0.046	-0.014	1.200	0.605	0.441	1.438	1.947	1.808	0.061	0.053	-0.156
0.174	25.046	-0.029	-0.009	-0.053	-0.010	1.192	0.574	0.391	1.486	1.941	1.807	0.061	0.058	-0.153
0.174	25.021	-0.029	-0.005	-0.060	-0.008	1.205	0.568	0.395	1.525	1.941	1.811	0.062	0.062	-0.148
0.174	25.018	-0.030	-0.002	-0.067	-0.003	1.203	0.553	0.445	1.544	1.948	1.804	0.061	0.067	-0.146
0.174	25.009	-0.026	0.001	-0.073	0.003	1.209	0.553	0.497	1.574	1.950	1.805	0.060	0.068	-0.141
0.174	25.009	-0.026	0.002	-0.079	0.012	1.192	0.553	0.522	1.608	1.945	1.815	0.059	0.073	-0.136
0.175	25.021	-0.024	0.004	-0.085	0.020	1.168	0.567	0.497	1.625	1.946	1.809	0.057	0.073	-0.133
0.175	25.012	-0.022	0.005	-0.089	0.028	1.128	0.577	0.453	1.632	1.942	1.808	0.055	0.074	-0.128
0.175	25.021	-0.020	0.005	-0.095	0.036	1.083	0.592	0.390	1.620	1.928	1.803	0.052	0.075	-0.123
0.175	25.027	-0.018	0.006	-0.098	0.043	1.025	0.594	0.341	1.585	1.938	1.809	0.050	0.074	-0.120
0.175	25.018	-0.014	0.004	-0.105	0.051	0.998	0.571	0.324	1.547	1.943	1.816	0.046	0.073	-0.114
0.176	25.009	-0.013	0.005	-0.108	0.054	0.971	0.555	0.282	1.523	1.938	1.811	0.043	0.073	-0.111
0.176	24.994	-0.008	0.005	-0.115	0.057	0.989	0.537	0.267	1.569	1.938	1.806	0.039	0.070	-0.106
0.176	25.000	-0.005	0.004	-0.118	0.058	1.028	0.519	0.215	1.624	1.947	1.809	0.034	0.069	-0.101
0.176	25.000	-0.001	0.003	-0.124	0.057	1.034	0.514	0.180	1.649	1.946	1.806	0.031	0.067	-0.099
0.176	25.018	0.003	0.007	-0.127	0.056	1.023	0.532	0.156	1.664	1.947	1.814	0.027	0.064	-0.096
0.177	24.988	0.006	0.002	-0.132	0.052	0.961	0.525	0.161	1.614	1.953	1.807	0.023	0.063	-0.091
0.177	25.003	0.011	0.004	-0.138	0.049	0.912	0.534	0.230	1.609	1.940	1.812	0.020	0.060	-0.088
0.177	24.991	0.015	0.002	-0.142	0.046	0.861	0.511	0.306	1.611	1.936	1.815	0.015	0.057	-0.085
0.177	25.009	0.021	0.002	-0.150	0.043	0.828	0.493	0.374	1.633	1.935	1.807	0.012	0.055	-0.084
0.177	25.009	0.024	0.001	-0.153	0.040	0.813	0.500	0.441	1.674	1.939	1.806	0.009	0.053	-0.082
0.178	24.991	0.030	0.000	-0.159	0.035	0.809	0.496	0.473	1.712	1.945	1.826	0.007	0.052	-0.081
0.178	25.003	0.034	-0.001	-0.165	0.032	0.816	0.526	0.497	1.741	1.942	1.813	0.004	0.051	-0.082
0.178	25.003	0.037	-0.001	-0.170	0.027	0.780	0.548	0.513	1.720	1.944	1.809	0.001	0.051	-0.082
0.178	24.985	0.040	-0.001	-0.174	0.023	0.749	0.574	0.517	1.680	1.942	1.813	-0.001	0.050	-0.083
0.178	25.009	0.045	-0.001	-0.178	0.018	0.740	0.574	0.493	1.626	1.942	1.810	-0.002	0.050	-0.084
0.179	25.003	0.049	-0.002	-0.181	0.011	0.729	0.581	0.452	1.597	1.937	1.804	-0.003	0.049	-0.086
0.179	24.991	0.054	-0.001	-0.184	0.004	0.725	0.571	0.400	1.595	1.937	1.812	-0.005	0.050	-0.089
0.179	25.009	0.058	-0.004	-0.185	-0.004	0.729	0.565	0.347	1.632	1.943	1.808	-0.007	0.050	-0.090
0.179	24.985	0.061	-0.007	-0.186	-0.008	0.734	0.574	0.335	1.668	1.944	1.814	-0.006	0.049	-0.094
0.179	25.015	0.065	-0.008	-0.188	-0.013	0.735	0.621	0.320	1.662	1.943	1.808	-0.008	0.050	-0.097
0.180	25.000	0.067	-0.013	-0.189	-0.018	0.708	0.663	0.339	1.616	1.936	1.808	-0.010	0.050	-0.099
0.180	25.003	0.068	-0.016	-0.189	-0.021	0.695	0.693	0.385	1.541	1.947	1.813	-0.012	0.050	-0.101
0.180	24.973	0.071	-0.022	-0.189	-0.024	0.672	0.695	0.440	1.513	1.944	1.807	-0.013	0.049	-0.104
0.180	25.006	0.075	-0.026	-0.186	-0.023	0.680	0.658	0.457	1.567	1.937	1.811	-0.013	0.048	-0.104
0.180	25.000	0.079	-0.030	-0.184	-0.020	0.699	0.592	0.452	1.628	1.943	1.810	-0.015	0.047	-0.104
0.181	25.003	0.082	-0.033	-0.182	-0.019	0.720	0.542	0.429	1.706	1.945	1.809	-0.015	0.045	-0.104
0.181	25.006	0.084	-0.035	-0.175	-0.012	0.726	0.516	0.432	1.759	1.947	1.809	-0.016	0.046	-0.104
0.181	24.973	0.087	-0.039	-0.172	-0.010	0.698	0.526	0.494	1.777	1.941	1.814	-0.014	0.044	-0.102
0.181	24.985	0.090	-0.042	-0.163	-0.002	0.646	0.535	0.580	1.712	1.941	1.812	-0.014	0.042	-0.100
0.181	24.969	0.092	-0.044	-0.156	0.005	0.579	0.551	0.650	1.659	1.943	1.807	-0.012	0.040	-0.096
0.182	24.979	0.090	-0.046	-0.149	0.014	0.540	0.566	0.682	1.576	1.950	1.807	-0.012	0.039	-0.092
0.182	24.973	0.089	-0.047	-0.145	0.021	0.498	0.550	0.635	1.564	1.946	1.810	-0.008	0.038	-0.089
0.182	24.985	0.090	-0.045	-0.135	0.027	0.510	0.553	0.516	1.614	1.949	1.811	-0.006	0.039	-0.084
0.182	24.963	0.090	-0.047	-0.129	0.035	0.520	0.535	0.422	1.674	1.941	1.817	-0.004	0.036	-0.078
0.182	24.985	0.091	-0.045	-0.124	0.042	0.523	0.516	0.362	1.721	1.948	1.817	-0.000	0.036	-0.070
0.183	24.960	0.091	-0.046	-0.119	0.049	0.498	0.538	0.407	1.697	1.939	1.811	0.003	0.036	-0.062
0.183	24.960	0.090	-0.043	-0.112	0.052	0.440	0.553	0.437	1.669	1.933	1.819	0.006	0.036	-0.057
0.183	24.969	0.089	-0.042	-0.106	0.055	0.374	0.575	0.497	1.597	1.939	1.811	0.009	0.038	-0.048
0.183	24.960	0.090	-0.041	-0.100	0.058	0.348	0.555	0.521	1.534	1.937	1.806	0.013	0.038	-0.041
0.183	24.966	0.084	-0.041	-0.095	0.059	0.322	0.551	0.501	1.548	1.932	1.807	0.017	0.040	-0.032
0.184	24.973	0.086	-0.041	-0.091	0.060	0.335	0.513	0.429	1.613	1.935	1.812	0.020	0.041	-0.024
0.184	24.954	0.080	-0.040	-0.089	0.059	0.361	0.524	0.352	1.697	1.947	1.815	0.024	0.041	-0.016
0.184	24.985	0.082	-0.040	-0.087	0.058	0.357	0.512	0.327	1.761	1.947	1.815	0.027	0.043	-0.009
0.184	24.969	0.078	-0.040	-0.086	0.056	0.320	0.547	0.359	1.772	1.946	1.813	0.030	0.044	-0.002
0.184	24.957	0.076	-0.041	-0.085	0.054	0.269	0.592	0.447	1.731	1.941	1.810	0.032	0.047	0.003
0.185	24.960	0.075	-0.042	-0.083	0.053	0.267	0.596	0.497	1.673	1.943	1.811	0.033	0.050	0.008
0.185	24.951	0.075	-0.043	-0.083	0.051	0.269	0.584	0.497	1.609	1.943	1.816	0.035	0.051	0.014
0.185	24.957	0.078	-0.044	-0.083	0.050	0.319	0.526	0.454	1.608	1.938	1.812	0.034	0.053	0.016
0.185	24.945	0.077	-0.046	-0.082	0.049	0.347	0.465	0.391	1.641	1.944	1.811	0.033	0.056	0.019
0.185	24.951	0.076	-0.047	-0.081	0.048	0.393	0.417	0.324	1.690	1.941	1.814	0.034	0.056	0.021
0.186	24.966	0.075	-0.049	-0.079	0.047	0.395	0.393	0.305	1.723	1.933	1.811	0.031	0.058	0.022
0.186	24.951	0.070	-0.052	-0.076	0.047	0.378	0.403	0.338	1.722	1.933	1.805	0.028	0.059	0.022
0.186	24.948	0.068	-0.052	-0.072	0.046	0.361	0.434	0.392	1.659	1.930	1.804	0.025	0.059	0.019
0.186	24.945	0.065	-0.055	-0.068	0.041	0.356	0.438	0.435	1.562	1.939	1.811	0.021	0.060	0.019
0.186	24.951	0.063	-0.055	-0.063	0.043	0.349	0.431	0.458	1.493	1.932	1.812	0.017	0.057	0.016
0.187	24.948	0.063	-0.055	-0.058	0.045	0.357	0.374	0.413	1.458	1.938	1.809	0.011	0.057	0.012
0.187	24.948	0.064	-0.054	-0.052	0.042	0.378	0.335	0.369	1.491	1.932	1.812	0.006	0.057	0.008
0.187	24.939	0.063	-0.055	-0.046	0.043	0.357	0.311	0.323	1.507	1.942	1.815	0.000	0.055	0.001
0.187	24.942	0.062	-0.054	-0.039	0.044	0.343	0.295	0.295	1.538	1.935	1.803	-0.007	0.055	-0.004
0.187	24.930	0.059	-0.053	-0.032	0.046	0.336	0.294	0.304	1.602	1.939	1.814	-0.012	0.053	-0.011
0.188	24.945	0.055	-0.052	-0.027	0.049	0.335	0.278	0.366	1.645	1.934	1.808	-0.020	0.052	-0.018
0.188	24.942	0.051	-0.049	-0.020	0.053	0.346	0.279	0.397	1.583	1.935	1.810	-0.025	0.050	-0.025
0.188	24.954	0.049	-0.047	-0.014	0.057	0.353	0.267	0.431	1.537	1.935	1.810	-0.032	0.049	-0.032
0.188	24.933	0.048	-0.043	-0.009	0.061	0.368	0.254	0.408	1.540	1.935	1.815	-0.037	0.047	-0.039
0.188	24.942	0.049	-0.040	-0.004	0.065	0.389	0.238	0.359	1.557	1.929	1.813	-0.044	0.046	-0.046
0.189	24.933	0.050	-0.037	-0.001	0.071	0.400	0.218	0.320	1.629	1.934	1.809	-0.050	0.043	-0.052
0.189	24.948	0.050	-0.033	-0.001	0.073	0.403	0.223	0.303	1.676	1.934	1.809	-0.057	0.044	-0.060
0.189	24.960	0.050	-0.030	0.003	0.077	0.424	0.237	0.339	1.708	1.929	1.809	-0.061	0.043	-0.066
0.189	24.942	0.045	-0.028	0.003	0.078	0.429	0.251	0.392	1.664	1.931	1.817	-0.066	0.042	-0.071
0.189	24.948	0.039	-0.025	0.003	0.080	0.448	0.252	0.460	1.602	1.929	1.809	-0.070	0.041	-0.077
0.190	24.951	0.032	-0.025	0.002	0.078	0.461	0.239	0.493	1.578	1.930	1.818	-0.074	0.042	-0.079
0.190	24.957	0.028	-0.023	0.000	0.077	0.476	0.208	0.505	1.551	1.939	1.816	-0.079	0.043	-0.082
0.190	24.951	0.025	-0.021	-0.002	0.072	0.496	0.171	0.487	1.602	1.929	1.811	-0.082	0.043	-0.084
0.190	24.957	0.023	-0.019	-0.005	0.069	0.496	0.174	0.450	1.670	1.931	1.808	-0.085	0.044	-0.082
0.190	24.936	0.020	-0.019	-0.008	0.063	0.481	0.191	0.437	1.686	1.933	1.809	-0.087	0.045	-0.084
0.191	24.948	0.023	-0.018	-0.010	0.055	0.451	0.194	0.453	1.719	1.928	1.813	-0.088	0.046	-0.082
0.191	24.948	0.020	-0.016	-0.013	0.047	0.433	0.223	0.487	1.716	1.928	1.813	-0.089	0.048	-0.079
0.191	24.930	0.018	-0.015	-0.015	0.038	0.361	0.205	0.512	1.622	1.923	1.811	-0.089	0.048	-0.075
0.191	24.951	0.012	-0.013	-0.018	0.032	0.361	0.207	0.530	1.526	1.930	1.820	-0.090	0.051	-0.070
0.191	24.942	0.007	-0.012	-0.020	0.022	0.331	0.182	0.518	1.429	1.922	1.810	-0.089	0.053	-0.064
0.192	24.948	0.004	-0.012	-0.021	0.016	0.347	0.160	0.471	1.394	1.928	1.817	-0.089	0.054	-0.057
0.192	24.945	-0.001	-0.014	-0.021	0.012	0.346	0.138	0.420	1.438	1.927	1.811	-0.087	0.055	-0.050
0.192	24.945	-0.002	-0.016	-0.022	0.008	0.344	0.141	0.383	1.479	1.926	1.819	-0.084	0.055	-0.043
0.192	24.954	-0.003	-0.016	-0.020	0.003	0.322	0.172	0.383	1.581	1.930	1.816	-0.082	0.056	-0.035
0.192	24.921	-0.004	-0.021	-0.021	0.004	0.305	0.206	0.419	1.653	1.931	1.823	-0.081	0.057	-0.025
0.193	24.951	-0.003	-0.022	-0.018	0.002	0.286	0.232	0.476	1.653	1.924	1.815	-0.077	0.054	-0.020
0.193	24.933	-0.002	-0.027	-0.018	0.007	0.280	0.220	0.533	1.616	1.930	1.819	-0.076	0.054	-0.012
0.193	24.924	-0.006	-0.030	-0.018	0.010	0.254	0.206	0.575	1.579	1.923	1.815	-0.073	0.052	-0.007
0.193	24.936	-0.006	-0.031	-0.019	0.014	0.257	0.163	0.540	1.557	1.931	1.816	-0.069	0.047	-0.000
0.193	24.936	-0.010	-0.035	-0.021	0.024	0.247	0.137	0.496	1.659	1.930	1.816	-0.066	0.045	0.007
0.194	24.936	-0.013	-0.036	-0.019	0.035	0.213	0.134	0.427	1.680	1.925	1.816	-0.062	0.039	0.009
0.194	24.927	-0.013	-0.038	-0.023	0.046	0.201	0.151	0.420	1.734	1.939	1.817	-0.059	0.035	0.013
0.194	24.924	-0.014	-0.038	-0.023	0.056	0.175	0.179	0.417	1.713	1.926	1.821	-0.058	0.031	0.012
0.194	24.927	-0.015	-0.039	-0.023	0.068	0.168	0.177	0.452	1.653	1.926	1.824	-0.056	0.025	0.012
0.194	24.921	-0.015	-0.040	-0.027	0.081	0.158	0.162	0.464	1.592	1.929	1.818	-0.052	0.019	0.011
0.195	24.899	-0.012	-0.040	-0.028	0.090	0.156	0.125	0.424	1.544	1.931	1.824	-0.051	0.013	0.009
0.195	24.921	-0.012	-0.039	-0.029	0.100	0.144	0.069	0.389	1.559	1.927	1.819	-0.048	0.006	0.005
0.195	24.921	-0.012	-0.041	-0.030	0.107	0.112	0.048	0.379	1.602	1.930	1.820	-0.046	0.000	-0.000
0.195	24.942	-0.013	-0.042	-0.032	0.112	0.078	0.057	0.378	1.666	1.927	1.819	-0.045	-0.006	-0.006
0.195	24.933	-0.013	-0.041	-0.034	0.115	0.029	0.072	0.401	1.716	1.929	1.821	-0.044	-0.010	-0.013
0.196	24.911	-0.015	-0.042	-0.036	0.116	0.010	0.105	0.450	1.738	1.929	1.819	-0.042	-0.015	-0.020
0.196	24.921	-0.016	-0.044	-0.037	0.116	-0.008	0.116	0.541	1.765	1.933	1.825	-0.043	-0.018	-0.028
0.196	24.902	-0.016	-0.044	-0.040	0.116	-0.013	0.095	0.577	1.757	1.921	1.824	-0.041	-0.021	-0.036
0.196	24.899	-0.013	-0.046	-0.043	0.115	0.007	0.053	0.579	1.753	1.926	1.819	-0.040	-0.024	-0.044
0.196	24.902	-0.012	-0.047	-0.044	0.114	0.028	0.007	0.559	1.755	1.935	1.819	-0.041	-0.025	-0.051
0.197	24.899	-0.008	-0.046	-0.046	0.114	0.026	-0.027	0.544	1.775	1.929	1.818	-0.040	-0.024	-0.059
0.197	24.899	-0.007	-0.046	-0.048	0.113	0.019	-0.008	0.548	1.816	1.931	1.816	-0.042	-0.023	-0.065
0.197	24.893	-0.006	-0.047	-0.050	0.112	0.014	0.028	0.543	1.804	1.933	1.819	-0.041	-0.021	-0.070
0.197	24.905	-0.005	-0.047	-0.050	0.112	0.054	0.063	0.555	1.804	1.935	1.821	-0.044	-0.018	-0.073
0.197	24.896	-0.005	-0.048	-0.052	0.114	0.075	0.068	0.547	1.749	1.941	1.820	-0.046	-0.015	-0.075
0.198	24.902	-0.007	-0.049	-0.052	0.116	0.123	0.046	0.551	1.685	1.927	1.826	-0.048	-0.011	-0.076
0.198	24.884	-0.009	-0.051	-0.055	0.119	0.141	0.013	0.533	1.624	1.927	1.823	-0.051	-0.005	-0.075
0.198	24.905	-0.007	-0.054	-0.054	0.122	0.157	-0.015	0.500	1.603	1.929	1.828	-0.052	0.001	-0.075
0.198	24.884	-0.004	-0.057	-0.055	0.128	0.156	-0.019	0.511	1.577	1.935	1.822	-0.054	0.005	-0.072
0.198	24.902	-0.005	-0.062	-0.057	0.137	0.151	-0.037	0.526	1.571	1.925	1.827	-0.059	0.012	-0.069
0.199	24.884	-0.001	-0.064	-0.058	0.145	0.147	-0.003	0.577	1.561	1.937	1.831	-0.063	0.019	-0.065
0.199	24.872	0.000	-0.071	-0.058	0.154	0.162	0.021	0.631	1.537	1.932	1.827	-0.066	0.026	-0.058
0.199	24.893	0.003	-0.076	-0.059	0.160	0.167	0.032	0.701	1.507	1.938	1.824	-0.069	0.031	-0.053
0.199	24.869	0.002	-0.079	-0.059	0.170	0.203	0.040	0.756	1.481	1.935	1.827	-0.071	0.036	-0.045
0.199	24.878	0.001	-0.085	-0.056	0.179	0.232	0.003	0.766	1.470	1.937	1.831	-0.075	0.039	-0.041
0.200	24.881	-0.000	-0.088	-0.055	0.183	0.249	0.002	0.769	1.434	1.940	1.830	-0.077	0.045	-0.035
0.200	24.872	-0.002	-0.093	-0.050	0.190	0.265	-0.020	0.789	1.524	1.939	1.822	-0.079	0.048	-0.029
0.200	24.887	-0.004	-0.096	-0.046	0.194	0.270	0.003	0.780	1.566	1.934	1.817	-0.081	0.053	-0.025
0.200	24.860	-0.002	-0.101	-0.040	0.196	0.262	0.049	0.767	1.572	1.935	1.826	-0.082	0.054	-0.019
0.200	24.866	-0.000	-0.102	-0.036	0.199	0.253	0.086	0.757	1.543	1.941	1.824	-0.083	0.057	-0.014
0.201	24.850	0.002	-0.104	-0.031	0.199	0.234	0.116	0.768	1.480	1.938	1.829	-0.082	0.059	-0.011
0.201	24.844	0.005	-0.105	-0.027	0.199	0.239	0.136	0.776	1.411	1.941	1.832	-0.083	0.058	-0.007
0.201	24.866	0.008	-0.108	-0.023	0.197	0.215	0.129	0.800	1.392	1.937	1.824	-0.082	0.060	-0.004
0.201	24.829	0.003	-0.108	-0.015	0.196	0.240	0.131	0.790	1.416	1.927	1.826	-0.080	0.058	-0.002
0.201	24.835	0.002	-0.111	-0.011	0.190	0.272	0.130	0.757	1.513	1.933	1.829	-0.078	0.056	0.000
0.202	24.854	-0.001	-0.112	-0.005	0.184	0.318	0.135	0.767	1.613	1.934	1.828	-0.074	0.053	0.000
0.202	24.835	0.001	-0.111	0.001	0.178	0.367	0.183	0.812	1.663	1.940	1.831	-0.072	0.049	-0.000
0.202	24.841	-0.002	-0.117	0.004	0.170	0.402	0.186	0.859	1.687	1.938	1.830	-0.070	0.045	0.002
0.202	24.829	-0.002	-0.113	0.011	0.163	0.391	0.207	0.898	1.692	1.933	1.833	-0.064	0.041	-0.002
0.202	24.847	-0.004	-0.115	0.015	0.156	0.405	0.227	0.918	1.672	1.930	1.827	-0.061	0.036	-0.004
0.203	24.844	-0.004	-0.116	0.019	0.148	0.420	0.205	0.908	1.670	1.940	1.826	-0.057	0.032	-0.004
0.203	24.814	-0.002	-0.116	0.022	0.140	0.457	0.196	0.881	1.669	1.932	1.829	-0.052	0.026	-0.007
0.203	24.817	-0.004	-0.120	0.026	0.133	0.499	0.202	0.868	1.697	1.934	1.824	-0.048	0.022	-0.011
0.203	24.820	-0.007	-0.119	0.028	0.124	0.490	0.209	0.893	1.683	1.936	1.833	-0.043	0.017	-0.018
0.203	24.802	-0.006	-0.120	0.032	0.115	0.473	0.206	0.935	1.664	1.930	1.830	-0.042	0.011	-0.018
0.204	24.835	-0.009	-0.121	0.034	0.109	0.465	0.195	0.965	1.620	1.935	1.828	-0.036	0.006	-0.021
0.204	24.811	-0.011	-0.120	0.035	0.099	0.468	0.194	0.950	1.572	1.935	1.827	-0.033	0.001	-0.027
0.204	24.844	-0.013	-0.121	0.035	0.092	0.478	0.194	0.911	1.553	1.926	1.833	-0.028	-0.003	-0.031
0.204	24.799	-0.014	-0.120	0.035	0.082	0.512	0.180	0.824	1.549	1.927	1.833	-0.027	-0.008	-0.035
0.204	24.820	-0.016	-0.120	0.035	0.074	0.551	0.173	0.743	1.552	1.933	1.831	-0.024	-0.012	-0.040
0.205	24.829	-0.017	-0.119	0.034	0.065	0.577	0.165	0.722	1.549	1.931	1.825	-0.022	-0.015	-0.043
0.205	24.817	-0.022	-0.118	0.033	0.056	0.570	0.167	0.763	1.551	1.933	1.835	-0.020	-0.019	-0.045
0.205	24.857	-0.026	-0.118	0.029	0.049	0.541	0.149	0.827	1.531	1.926	1.837	-0.020	-0.021	-0.049
0.205	24.823	-0.026	-0.116	0.027	0.041	0.485	0.151	0.864	1.488	1.932	1.832	-0.019	-0.021	-0.052
0.205	24.823	-0.029	-0.116	0.023	0.034	0.451	0.138	0.887	1.492	1.928	1.830	-0.019	-0.022	-0.056
0.206	24.832	-0.030	-0.114	0.018	0.024	0.454	0.120	0.882	1.520	1.927	1.834	-0.019	-0.021	-0.055
0.206	24.826	-0.032	-0.113	0.014	0.020	0.497	0.102	0.857	1.539	1.928	1.833	-0.020	-0.021	-0.056
0.206	24.844	-0.034	-0.112	0.011	0.014	0.565	0.088	0.786	1.557	1.934	1.837	-0.023	-0.019	-0.056
0.206	24.854	-0.039	-0.110	0.008	0.008	0.611	0.068	0.725	1.556	1.926	1.839	-0.026	-0.016	-0.057
0.206	24.847	-0.040	-0.109	0.006	0.002	0.653	0.044	0.731	1.554	1.929	1.835	-0.028	-0.014	-0.056
0.207	24.863	-0.042	-0.108	0.007	-0.004	0.638	0.024	0.760	1.515	1.924	1.839	-0.030	-0.010	-0.053
0.207	24.844	-0.044	-0.108	0.002	-0.010	0.618	-0.015	0.797	1.460	1.929	1.834	-0.035	-0.008	-0.051
0.207	24.857	-0.046	-0.107	0.002	-0.015	0.584	-0.035	0.793	1.399	1.924	1.834	-0.038	-0.005	-0.048
0.207	24.869	-0.046	-0.107	-0.001	-0.022	0.579	-0.064	0.764	1.380	1.930	1.832	-0.041	0.000	-0.044
0.207	24.857	-0.048	-0.106	-0.002	-0.029	0.633	-0.043	0.714	1.363	1.929	1.836	-0.046	0.004	-0.041
0.208	24.878	-0.049	-0.108	-0.004	-0.038	0.704	-0.035	0.672	1.401	1.932	1.832	-0.050	0.009	-0.037
0.208	24.866	-0.050	-0.109	-0.006	-0.046	0.799	-0.013	0.662	1.458	1.943	1.836	-0.052	0.013	-0.032
0.208	24.881	-0.054	-0.110	-0.007	-0.055	0.883	0.005	0.690	1.520	1.935	1.842	-0.057	0.015	-0.028
0.208	24.869	-0.057	-0.108	-0.009	-0.063	0.931	0.004	0.773	1.562	1.933	1.839	-0.059	0.019	-0.023
0.208	24.863	-0.062	-0.109	-0.010	-0.070	0.953	0.022	0.828	1.564	1.930	1.840	-0.061	0.021	-0.019
0.209	24.863	-0.064	-0.107	-0.012	-0.075	0.954	0.023	0.862	1.549	1.929	1.840	-0.063	0.021	-0.015
0.209	24.875	-0.070	-0.106	-0.013	-0.080	0.944	0.056	0.865	1.534	1.927	1.845	-0.062	0.021	-0.010
0.209	24.869	-0.071	-0.107	-0.015	-0.082	0.926	0.064	0.834	1.512	1.920	1.840	-0.064	0.020	-0.008
0.209	24.866	-0.077	-0.106	-0.013	-0.082	0.918	0.076	0.797	1.504	1.921	1.842	-0.063	0.019	-0.006
0.209	24.857	-0.081	-0.107	-0.016	-0.081	0.924	0.085	0.803	1.484	1.928	1.840	-0.061	0.017	-0.003
0.210	24.875	-0.085	-0.106	-0.015	-0.078	0.966	0.098	0.827	1.482	1.922	1.836	-0.058	0.015	-0.002
0.210	24.881	-0.089	-0.106	-0.013	-0.073	0.994	0.125	0.873	1.486	1.921	1.840	-0.056	0.012	-0.003
0.210	24.866	-0.092	-0.104	-0.011	-0.067	1.042	0.167	0.896	1.484	1.926	1.840	-0.053	0.009	-0.002
0.210	24.866	-0.096	-0.104	-0.006	-0.061	1.075	0.203	0.877	1.491	1.938	1.838	-0.049	0.004	-0.003
0.210	24.863	-0.098	-0.102	-0.004	-0.052	1.095	0.263	0.831	1.464	1.927	1.843	-0.044	-0.000	-0.004
0.211	24.863	-0.101	-0.099	0.003	-0.044	1.099	0.320	0.813	1.451	1.918	1.835	-0.041	-0.004	-0.005
0.211	24.893	-0.103	-0.098	0.010	-0.039	1.062	0.374	0.772	1.480	1.918	1.839	-0.036	-0.010	-0.010
0.211	24.866	-0.108	-0.097	0.018	-0.034	1.041	0.433	0.764	1.470	1.923	1.840	-0.031	-0.015	-0.013
0.211	24.875	-0.109	-0.096	0.023	-0.029	1.048	0.484	0.785	1.462	1.932	1.845	-0.026	-0.020	-0.015
0.211	24.863	-0.113	-0.095	0.034	-0.024	1.059	0.511	0.811	1.463	1.931	1.841	-0.022	-0.025	-0.019
0.212	24.875	-0.116	-0.097	0.041	-0.020	1.122	0.500	0.841	1.453	1.925	1.846	-0.019	-0.030	-0.023
0.212	24.875	-0.120	-0.097	0.047	-0.018	1.166	0.492	0.812	1.431	1.924	1.841	-0.015	-0.032	-0.026
0.212	24.869	-0.119	-0.099	0.058	-0.017	1.237	0.471	0.768	1.367	1.927	1.845	-0.013	-0.036	-0.028
0.212	24.884	-0.121	-0.103	0.064	-0.014	1.248	0.471	0.710	1.361	1.929	1.845	-0.010	-0.039	-0.031
0.212	24.878	-0.119	-0.102	0.073	-0.017	1.217	0.499	0.681	1.358	1.922	1.844	-0.008	-0.043	-0.035
0.213	24.860	-0.120	-0.101	0.081	-0.019	1.191	0.548	0.676	1.366	1.931	1.843	-0.006	-0.044	-0.033
0.213	24.878	-0.118	-0.103	0.084	-0.018	1.148	0.593	0.698	1.395	1.932	1.846	-0.005	-0.045	-0.033
0.213	24.860	-0.117	-0.102	0.094	-0.021	1.150	0.657	0.773	1.404	1.930	1.852	-0.004	-0.047	-0.036
0.213	24.875	-0.119	-0.103	0.098	-0.020	1.152	0.657	0.814	1.406	1.924	1.847	-0.005	-0.046	-0.034
0.213	24.881	-0.119	-0.102	0.105	-0.023	1.154	0.637	0.836	1.396	1.931	1.839	-0.004	-0.045	-0.033
0.214	24.863	-0.120	-0.102	0.109	-0.022	1.157	0.609	0.834	1.401	1.931	1.844	-0.004	-0.045	-0.031
0.214	24.884	-0.121	-0.104	0.110	-0.018	1.142	0.593	0.775	1.404	1.922	1.848	-0.004	-0.044	-0.030
0.214	24.857	-0.120	-0.106	0.113	-0.016	1.117	0.591	0.734	1.422	1.930	1.843	-0.003	-0.040	-0.027
0.214	24.866	-0.119	-0.109	0.113	-0.009	1.082	0.630	0.665	1.464	1.931	1.850	-0.003	-0.036	-0.024
0.214	24.872	-0.115	-0.111	0.115	-0.002	1.071	0.694	0.645	1.487	1.929	1.843	-0.003	-0.031	-0.021
0.215	24.860	-0.111	-0.115	0.115	0.006	1.058	0.735	0.664	1.477	1.923	1.849	-0.003	-0.026	-0.018
0.215	24.872	-0.107	-0.115	0.117	0.017	1.083	0.790	0.692	1.480	1.936	1.852	-0.003	-0.020	-0.016
0.215	24.863	-0.104	-0.120	0.118	0.029	1.131	0.777	0.675	1.472	1.935	1.854	-0.003	-0.014	-0.012
0.215	24.866	-0.098	-0.122	0.120	0.041	1.167	0.713	0.603	1.478	1.933	1.856	-0.005	-0.008	-0.008
0.215	24.872	-0.096	-0.125	0.122	0.053	1.202	0.643	0.485	1.529	1.930	1.848	-0.005	0.000	-0.005
0.216	24.847	-0.091	-0.127	0.125	0.068	1.219	0.590	0.388	1.583	1.929	1.851	-0.007	0.007	-0.002
0.216	24.890	-0.091	-0.130	0.128	0.081	1.202	0.578	0.338	1.633	1.934	1.861	-0.010	0.013	0.001
0.216	24.872	-0.087	-0.132	0.133	0.098	1.198	0.609	0.346	1.656	1.929	1.853	-0.012	0.019	0.004
0.216	24.875	-0.087	-0.134	0.136	0.115	1.199	0.640	0.420	1.603	1.934	1.855	-0.015	0.024	0.008
0.216	24.887	-0.082	-0.135	0.142	0.133	1.204	0.644	0.509	1.493	1.927	1.858	-0.019	0.030	0.009
0.217	24.866	-0.078	-0.137	0.145	0.151	1.224	0.594	0.546	1.403	1.930	1.852	-0.022	0.035	0.012
0.217	24.881	-0.075	-0.137	0.149	0.169	1.209	0.522	0.561	1.359	1.941	1.857	-0.027	0.040	0.014
0.217	24.875	-0.072	-0.137	0.157	0.189	1.197	0.447	0.511	1.383	1.933	1.854	-0.032	0.046	0.015
0.217	24.860	-0.069	-0.141	0.162	0.207	1.163	0.389	0.457	1.414	1.927	1.858	-0.039	0.049	0.016
0.217	24.884	-0.066	-0.140	0.168	0.225	1.163	0.385	0.419	1.416	1.933	1.863	-0.043	0.052	0.015
0.218	24.875	-0.064	-0.140	0.174	0.238	1.163	0.391	0.463	1.419	1.931	1.862	-0.049	0.056	0.017
0.218	24.872	-0.060	-0.141	0.181	0.254	1.175	0.421	0.531	1.370	1.922	1.856	-0.056	0.056	0.016
0.218	24.890	-0.060	-0.140	0.190	0.266	1.204	0.410	0.603	1.335	1.943	1.860	-0.062	0.059	0.016
0.218	24.875	-0.054	-0.140	0.195	0.276	1.229	0.371	0.621	1.302	1.937	1.857	-0.066	0.058	0.016
0.218	24.878	-0.050	-0.136	0.199	0.284	1.246	0.305	0.602	1.321	1.932	1.853	-0.070	0.058	0.015
0.219	24.881	-0.046	-0.135	0.207	0.289	1.239	0.237	0.529	1.318	1.943	1.861	-0.075	0.058	0.015
0.219	24.878	-0.041	-0.133	0.208	0.292	1.224	0.231	0.460	1.300	1.947	1.868	-0.080	0.057	0.013
0.219	24.881	-0.035	-0.130	0.207	0.294	1.228	0.239	0.437	1.302	1.938	1.866	-0.083	0.057	0.013
0.219	24.866	-0.036	-0.129	0.209	0.292	1.226	0.277	0.454	1.298	1.945	1.862	-0.086	0.058	0.012
0.219	24.875	-0.032	-0.128	0.209	0.292	1.232	0.295	0.493	1.285	1.942	1.859	-0.088	0.054	0.011
0.220	24.899	-0.032	-0.128	0.206	0.291	1.273	0.290	0.543	1.280	1.945	1.863	-0.091	0.052	0.011
0.220	24.869	-0.028	-0.129	0.201	0.287	1.302	0.255	0.550	1.268	1.938	1.868	-0.091	0.051	0.012
0.220	24.872	-0.024	-0.124	0.197	0.282	1.317	0.210	0.498	1.283	1.938	1.868	-0.091	0.049	0.011
0.220	24.869	-0.022	-0.124	0.191	0.279	1.321	0.197	0.463	1.287	1.949	1.864	-0.092	0.047	0.012
0.220	24.893	-0.020	-0.124	0.186	0.275	1.312	0.221	0.445	1.334	1.945	1.867	-0.091	0.045	0.012
0.221	24.881	-0.016	-0.123	0.182	0.271	1.268	0.239	0.462	1.365	1.939	1.870	-0.090	0.043	0.013
0.221	24.884	-0.016	-0.124	0.175	0.267	1.265	0.286	0.547	1.419	1.943	1.876	-0.091	0.040	0.015
0.221	24.887	-0.014	-0.123	0.168	0.264	1.261	0.302	0.628	1.444	1.942	1.870	-0.089	0.038	0.018
0.221	24.869	-0.012	-0.121	0.160	0.262	1.289	0.327	0.716	1.422	1.944	1.868	-0.089	0.035	0.020
0.221	24.878	-0.011	-0.122	0.154	0.263	1.302	0.317	0.730	1.371	1.943	1.866	-0.089	0.032	0.021
0.222	24.869	-0.010	-0.123	0.146	0.265	1.313	0.310	0.671	1.312	1.949	1.873	-0.090	0.028	0.023
0.222	24.890	-0.012	-0.124	0.137	0.267	1.295	0.341	0.553	1.278	1.935	1.878	-0.088	0.024	0.026
0.222	24.887	-0.009	-0.124	0.129	0.273	1.249	0.387	0.439	1.263	1.942	1.869	-0.090	0.021	0.026
0.222	24.869	-0.007	-0.125	0.119	0.276	1.251	0.463	0.380	1.259	1.946	1.870	-0.089	0.015	0.027
0.222	24.866	-0.008	-0.127	0.108	0.281	1.231	0.507	0.395	1.241	1.947	1.865	-0.090	0.011	0.029
0.223	24.860	-0.007	-0.124	0.099	0.285	1.228	0.581	0.459	1.186	1.947	1.865	-0.090	0.008	0.027
0.223	24.857	-0.005	-0.122	0.090	0.288	1.217	0.606	0.517	1.135	1.940	1.869	-0.091	0.002	0.027
0.223	24.863	-0.004	-0.121	0.080	0.290	1.205	0.598	0.512	1.119	1.941	1.873	-0.091	-0.001	0.026
0.223	24.847	-0.003	-0.119	0.070	0.291	1.167	0.615	0.439	1.136	1.943	1.869	-0.091	-0.007	0.024
0.223	24.854	-0.004	-0.118	0.057	0.292	1.134	0.609	0.318	1.192	1.949	1.870	-0.092	-0.010	0.022
0.224	24.844	-0.005	-0.115	0.046	0.289	1.098	0.643	0.244	1.273	1.950	1.865	-0.091	-0.014	0.020
0.224	24.854	-0.005	-0.114	0.033	0.290	1.100	0.691	0.262	1.298	1.946	1.870	-0.093	-0.018	0.017
0.224	24.835	-0.006	-0.110	0.022	0.287	1.126	0.749	0.350	1.271	1.958	1.874	-0.093	-0.022	0.013
0.224	24.838	-0.007	-0.109	0.009	0.287	1.150	0.771	0.432	1.185	1.945	1.872	-0.092	-0.025	0.010
0.224	24.850	-0.007	-0.105	-0.006	0.283	1.167	0.813	0.505	1.126	1.954	1.874	-0.093	-0.027	0.007
0.225	24.841	-0.009	-0.104	-0.018	0.279	1.150	0.811	0.440	1.147	1.953	1.876	-0.093	-0.030	0.005
0.225	24.826	-0.008	-0.102	-0.033	0.273	1.108	0.816	0.305	1.232	1.945	1.878	-0.093	-0.032	0.002
0.225	24.832	-0.011	-0.100	-0.043	0.267	1.045	0.834	0.135	1.282	1.946	1.883	-0.093	-0.033	-0.001
0.225	24.826	-0.012	-0.099	-0.057	0.260	1.011	0.864	0.041	1.325	1.939	1.878	-0.094	-0.034	-0.002
0.225	24.817	-0.015	-0.097	-0.066	0.250	0.997	0.895	0.053	1.261	1.943	1.878	-0.094	-0.033	-0.005
0.226	24.820	-0.017	-0.096	-0.077	0.237	1.027	0.918	0.202	1.144	1.941	1.877	-0.095	-0.035	-0.004
0.226	24.820	-0.020	-0.093	-0.083	0.226	1.068	0.925	0.336	1.038	1.940	1.880	-0.097	-0.035	-0.005
0.226	24.811	-0.023	-0.094	-0.094	0.212	1.103	0.934	0.429	0.985	1.949	1.876	-0.097	-0.034	-0.005
0.226	24.835	-0.026	-0.089	-0.099	0.199	1.126	0.934	0.390	1.041	1.953	1.874	-0.098	-0.034	-0.002
0.226	24.811	-0.030	-0.090	-0.106	0.186	1.105	0.923	0.284	1.143	1.939	1.883	-0.101	-0.033	0.001
0.227	24.820	-0.032	-0.087	-0.111	0.172	1.069	0.906	0.161	1.221	1.947	1.884	-0.102	-0.032	0.002
0.227	24.829	-0.036	-0.086	-0.113	0.158	1.015	0.889	0.136	1.251	1.940	1.880	-0.103	-0.029	0.006
0.227	24.802	-0.039	-0.084	-0.116	0.145	0.983	0.883	0.199	1.186	1.951	1.875	-0.106	-0.026	0.009
0.227	24.814	-0.042	-0.083	-0.117	0.132	0.985	0.865	0.335	1.108	1.949	1.881	-0.109	-0.025	0.012
0.227	24.817	-0.046	-0.084	-0.118	0.119	1.008	0.862	0.464	1.030	1.941	1.879	-0.112	-0.022	0.016
0.228	24.826	-0.049	-0.083	-0.118	0.107	1.047	0.894	0.519	1.028	1.940	1.883	-0.115	-0.021	0.021
0.228	24.820	-0.049	-0.084	-0.118	0.096	1.087	0.890	0.456	1.105	1.951	1.880	-0.117	-0.019	0.025
0.228	24.799	-0.052	-0.083	-0.117	0.083	1.129	0.896	0.334	1.187	1.950	1.881	-0.120	-0.016	0.029
0.228	24.820	-0.055	-0.084	-0.119	0.074	1.148	0.874	0.211	1.233	1.937	1.884	-0.122	-0.013	0.033
0.228	24.799	-0.059	-0.084	-0.119	0.067	1.167	0.833	0.197	1.192	1.940	1.888	-0.125	-0.009	0.037
0.229	24.796	-0.060	-0.085	-0.120	0.061	1.203	0.780	0.291	1.113	1.940	1.892	-0.128	-0.008	0.041
0.229	24.802	-0.059	-0.084	-0.122	0.058	1.252	0.730	0.474	1.023	1.949	1.882	-0.132	-0.004	0.045
0.229	24.805	-0.061	-0.084	-0.122	0.056	1.269	0.707	0.629	0.955	1.944	1.879	-0.132	0.000	0.049
0.229	24.829	-0.059	-0.083	-0.126	0.057	1.250	0.726	0.644	0.940	1.947	1.884	-0.135	0.003	0.053
0.229	24.802	-0.061	-0.082	-0.129	0.057	1.191	0.741	0.541	1.009	1.931	1.884	-0.137	0.005	0.055
0.230	24.786	-0.059	-0.080	-0.132	0.059	1.137	0.760	0.380	1.115	1.946	1.886	-0.139	0.007	0.060
0.230	24.796	-0.060	-0.080	-0.138	0.063	1.119	0.762	0.220	1.187	1.958	1.882	-0.140	0.012	0.063
0.230	24.792	-0.059	-0.078	-0.140	0.064	1.155	0.749	0.156	1.160	1.944	1.881	-0.142	0.014	0.065
0.230	24.777	-0.061	-0.076	-0.144	0.065	1.249	0.734	0.195	1.075	1.945	1.889	-0.143	0.016	0.068
0.230	24.783	-0.060	-0.073	-0.146	0.064	1.343	0.707	0.341	1.010	1.947	1.889	-0.142	0.019	0.072
0.231	24.780	-0.061	-0.070	-0.148	0.064	1.403	0.712	0.466	0.905	1.940	1.897	-0.143	0.018	0.075
0.231	24.805	-0.060	-0.069	-0.148	0.063	1.405	0.728	0.478	0.896	1.943	1.882	-0.143	0.018	0.075
0.231	24.762	-0.060	-0.066	-0.148	0.060	1.366	0.762	0.425	0.945	1.939	1.889	-0.142	0.018	0.078
0.231	24.783	-0.058	-0.065	-0.147	0.056	1.328	0.785	0.298	1.046	1.943	1.888	-0.142	0.019	0.078
0.231	24.783	-0.057	-0.063	-0.145	0.049	1.298	0.808	0.234	1.145	1.939	1.887	-0.141	0.019	0.078
0.232	24.765	-0.056	-0.062	-0.142	0.042	1.307	0.824	0.258	1.153	1.938	1.887	-0.137	0.016	0.078
0.232	24.783	-0.052	-0.061	-0.138	0.033	1.353	0.841	0.352	1.113	1.946	1.893	-0.135	0.016	0.078
0.232	24.783	-0.054	-0.061	-0.130	0.024	1.375	0.847	0.445	1.027	1.940	1.891	-0.134	0.014	0.078
0.232	24.774	-0.053	-0.057	-0.123	0.009	1.370	0.869	0.499	0.947	1.936	1.890	-0.131	0.012	0.077
0.232	24.762	-0.048	-0.055	-0.113	-0.004	1.354	0.883	0.470	0.943	1.940	1.886	-0.129	0.010	0.078
0.233	24.762	-0.047	-0.056	-0.102	-0.017	1.273	0.910	0.329	0.995	1.942	1.885	-0.125	0.008	0.077
0.233	24.771	-0.043	-0.050	-0.090	-0.034	1.217	0.968	0.149	1.087	1.945	1.890	-0.122	0.003	0.075
0.233	24.768	-0.039	-0.050	-0.078	-0.047	1.201	0.954	-0.007	1.139	1.943	1.893	-0.118	0.001	0.078
0.233	24.774	-0.034	-0.045	-0.065	-0.058	1.204	0.962	-0.053	1.143	1.947	1.889	-0.115	-0.002	0.077
0.233	24.768	-0.030	-0.048	-0.052	-0.070	1.249	0.941	-0.007	1.059	1.941	1.892	-0.111	-0.005	0.080
0.234	24.765	-0.027	-0.047	-0.037	-0.078	1.294	0.916	0.084	0.979	1.942	1.897	-0.108	-0.008	0.079
0.234	24.765	-0.026	-0.049	-0.025	-0.085	1.293	0.902	0.155	0.911	1.945	1.893	-0.106	-0.012	0.081
0.234	24.783	-0.023	-0.051	-0.012	-0.088	1.240	0.907	0.149	0.930	1.947	1.893	-0.102	-0.013	0.081
0.234	24.777	-0.022	-0.053	-0.002	-0.089	1.186	0.944	0.101	1.026	1.942	1.894	-0.099	-0.016	0.084
0.234	24.780	-0.021	-0.055	0.009	-0.086	1.123	0.977	0.023	1.131	1.942	1.896	-0.097	-0.019	0.084
0.235	24.777	-0.020	-0.057	0.019	-0.081	1.112	1.019	-0.014	1.186	1.940	1.894	-0.095	-0.021	0.085
0.235	24.796	-0.017	-0.059	0.027	-0.074	1.127	1.030	0.007	1.180	1.936	1.891	-0.093	-0.021	0.087
0.235	24.771	-0.015	-0.061	0.034	-0.063	1.145	1.014	0.090	1.099	1.935	1.889	-0.091	-0.022	0.086
0.235	24.777	-0.012	-0.062	0.042	-0.052	1.186	0.990	0.178	0.986	1.947	1.885	-0.091	-0.023	0.086
0.235	24.802	-0.011	-0.065	0.048	-0.036	1.174	0.979	0.194	0.910	1.947	1.891	-0.091	-0.022	0.086
0.236	24.792	-0.007	-0.066	0.053	-0.020	1.141	1.003	0.167	0.913	1.949	1.894	-0.090	-0.021	0.086
0.236	24.786	-0.007	-0.069	0.056	0.000	1.103	1.018	0.075	0.968	1.943	1.899	-0.091	-0.022	0.086
0.236	24.823	-0.008	-0.070	0.057	0.020	1.066	1.062	-0.028	1.011	1.946	1.889	-0.091	-0.019	0.083
0.236	24.805	-0.006	-0.070	0.062	0.040	1.051	1.116	-0.107	1.008	1.947	1.893	-0.092	-0.019	0.080
0.236	24.808	-0.004	-0.071	0.065	0.062	1.043	1.129	-0.073	0.951	1.942	1.896	-0.093	-0.016	0.077
0.237	24.789	-0.004	-0.067	0.064	0.085	1.063	1.151	0.036	0.909	1.941	1.901	-0.094	-0.015	0.075
0.237	24.811	-0.000	-0.067	0.064	0.102	1.067	1.155	0.157	0.841	1.943	1.903	-0.093	-0.013	0.070
0.237	24.811	0.000	-0.066	0.064	0.118	1.046	1.160	0.230	0.792	1.943	1.894	-0.094	-0.010	0.067
0.237	24.792	-0.001	-0.062	0.065	0.136	1.009	1.188	0.241	0.766	1.947	1.895	-0.093	-0.008	0.065
0.237	24.792	0.002	-0.060	0.066	0.153	0.995	1.198	0.209	0.834	1.948	1.897	-0.093	-0.004	0.060
0.238	24.799	0.001	-0.058	0.070	0.164	0.985	1.216	0.183	0.853	1.946	1.899	-0.091	-0.001	0.056
0.238	24.808	0.002	-0.056	0.072	0.174	1.005	1.199	0.185	0.914	1.950	1.907	-0.091	0.002	0.054
0.238	24.792	0.002	-0.053	0.076	0.184	1.033	1.161	0.182	0.872	1.946	1.897	-0.089	0.005	0.051
0.238	24.814	0.003	-0.051	0.078	0.191	1.056	1.128	0.251	0.857	1.943	1.897	-0.085	0.008	0.048
0.238	24.802	0.005	-0.050	0.083	0.196	1.055	1.104	0.307	0.780	1.943	1.897	-0.084	0.013	0.047
0.239	24.820	0.006	-0.048	0.088	0.198	1.042	1.084	0.329	0.699	1.959	1.894	-0.079	0.016	0.044
0.239	24.799	0.011	-0.045	0.094	0.198	1.048	1.090	0.291	0.679	1.957	1.900	-0.076	0.019	0.045
0.239	24.823	0.009	-0.044	0.100	0.199	1.042	1.090	0.207	0.686	1.949	1.902	-0.072	0.022	0.044
0.239	24.817	0.010	-0.040	0.105	0.195	1.030	1.110	0.162	0.716	1.951	1.898	-0.068	0.024	0.044
0.239	24.838	0.009	-0.040	0.110	0.194	1.042	1.111	0.162	0.739	1.950	1.899	-0.066	0.025	0.047
0.240	24.866	0.007	-0.037	0.114	0.191	1.040	1.062	0.210	0.757	1.951	1.904	-0.060	0.027	0.047
0.240	24.841	0.007	-0.035	0.118	0.189	1.031	1.042	0.286	0.732	1.952	1.904	-0.057	0.027	0.049
0.240	24.875	0.005	-0.034	0.122	0.190	0.987	0.986	0.351	0.698	1.951	1.898	-0.055	0.025	0.051
0.240	24.872	0.001	-0.033	0.122	0.191	0.942	0.991	0.388	0.691	1.953	1.896	-0.050	0.024	0.052
0.240	24.875	0.001	-0.031	0.123	0.194	0.899	1.001	0.374	0.705	1.958	1.899	-0.048	0.021	0.054
0.241	24.915	0.001	-0.028	0.123	0.198	0.894	1.011	0.354	0.754	1.947	1.896	-0.044	0.019	0.054
0.241	24.908	0.000	-0.025	0.122	0.204	0.914	1.030	0.360	0.803	1.952	1.900	-0.041	0.016	0.053
0.241	24.921	0.002	-0.024	0.120	0.213	0.947	1.028	0.372	0.838	1.957	1.902	-0.041	0.011	0.053
0.241	24.942	-0.000	-0.024	0.115	0.218	0.981	0.990	0.384	0.805	1.958	1.899	-0.039	0.009	0.053
0.241	24.945	0.001	-0.022	0.111	0.225	0.990	0.949	0.397	0.792	1.957	1.901	-0.039	0.003	0.052
0.242	24.957	-0.000	-0.020	0.107	0.234	0.966	0.925	0.392	0.774	1.958	1.898	-0.038	-0.001	0.052
0.242	24.966	0.001	-0.019	0.100	0.241	0.938	0.919	0.343	0.748	1.943	1.904	-0.038	-0.007	0.048
0.242	24.966	0.002	-0.018	0.094	0.247	0.919	0.929	0.300	0.756	1.955	1.899	-0.039	-0.013	0.047
0.242	24.979	-0.001	-0.015	0.087	0.253	0.925	0.935	0.296	0.787	1.950	1.899	-0.038	-0.017	0.043
0.242	24.976	0.001	-0.011	0.081	0.255	0.930	0.936	0.292	0.829	1.945	1.892	-0.041	-0.023	0.038
0.243	25.000	0.004	-0.011	0.075	0.259	0.985	0.906	0.282	0.852	1.959	1.900	-0.043	-0.030	0.036
0.243	25.015	-0.002	-0.008	0.069	0.261	0.989	0.892	0.244	0.862	1.952	1.903	-0.043	-0.031	0.030
0.243	25.009	-0.003	-0.005	0.064	0.258	1.009	0.904	0.189	0.901	1.954	1.900	-0.048	-0.034	0.026
0.243	25.018	-0.006	-0.005	0.062	0.255	0.969	0.912	0.140	0.895	1.949	1.900	-0.048	-0.036	0.020
0.243	25.003	-0.007	-0.002	0.059	0.253	0.937	0.973	0.076	0.848	1.950	1.905	-0.050	-0.039	0.013
0.244	25.027	-0.008	-0.001	0.058	0.247	0.912	0.991	0.092	0.888	1.951	1.900	-0.053	-0.041	0.011
0.244	25.009	-0.010	0.001	0.054	0.238	0.902	0.993	0.108	0.880	1.950	1.900	-0.054	-0.041	0.006
0.244	25.015	-0.010	0.002	0.054	0.230	0.924	0.958	0.135	0.872	1.950	1.899	-0.056	-0.040	0.003
0.244	25.034	-0.011	0.004	0.053	0.219	0.945	0.931	0.198	0.866	1.943	1.903	-0.057	-0.040	-0.001
0.244	25.027	-0.011	0.007	0.051	0.208	0.951	0.922	0.220	0.872	1.953	1.905	-0.061	-0.040	-0.002
0.245	25.037	-0.015	0.006	0.052	0.196	0.954	0.911	0.194	0.862	1.947	1.903	-0.062	-0.038	-0.003
0.245	25.034	-0.015	0.008	0.049	0.185	0.938	0.946	0.150	0.849	1.946	1.904	-0.064	-0.035	-0.005
0.245	25.034	-0.016	0.010	0.048	0.174	0.929	0.959	0.136	0.843	1.944	1.905	-0.067	-0.034	-0.005
0.245	25.037	-0.016	0.012	0.045	0.162	0.904	0.955	0.160	0.819	1.945	1.909	-0.068	-0.033	-0.006
0.245	25.012	-0.018	0.014	0.042	0.153	0.877	0.959	0.247	0.784	1.941	1.906	-0.070	-0.032	-0.005
0.246	25.037	-0.018	0.015	0.038	0.142	0.847	0.941	0.277	0.762	1.938	1.900	-0.071	-0.030	-0.002
0.246	25.031	-0.018	0.017	0.035	0.133	0.835	0.925	0.275	0.762	1.942	1.903	-0.070	-0.028	-0.002
0.246	25.037	-0.018	0.016	0.032	0.125	0.817	0.925	0.267	0.790	1.948	1.900	-0.071	-0.026	0.001
0.246	25.043	-0.020	0.018	0.029	0.118	0.805	0.931	0.193	0.766	1.951	1.902	-0.070	-0.024	0.002
0.246	25.031	-0.022	0.018	0.026	0.112	0.807	0.948	0.136	0.790	1.949	1.899	-0.070	-0.023	0.006
0.247	25.024	-0.022	0.017	0.023	0.108	0.817	0.935	0.099	0.780	1.947	1.900	-0.069	-0.023	0.008
0.247	25.018	-0.027	0.017	0.020	0.104	0.786	0.926	0.147	0.795	1.935	1.904	-0.066	-0.022	0.011
0.247	25.021	-0.026	0.016	0.018	0.100	0.805	0.892	0.247	0.797	1.944	1.905	-0.066	-0.023	0.013
0.247	25.034	-0.031	0.015	0.016	0.097	0.827	0.861	0.338	0.827	1.946	1.896	-0.064	-0.022	0.015
0.247	25.024	-0.029	0.013	0.013	0.094	0.816	0.843	0.364	0.870	1.943	1.900	-0.062	-0.023	0.017
0.248	25.021	-0.030	0.010	0.010	0.093	0.825	0.877	0.338	0.924	1.941	1.903	-0.059	-0.024	0.019
0.248	25.031	-0.031	0.009	0.008	0.091	0.779	0.909	0.263	0.962	1.941	1.899	-0.056	-0.025	0.020
0.248	25.024	-0.032	0.007	0.004	0.091	0.765	0.966	0.222	0.965	1.947	1.898	-0.053	-0.027	0.022
0.248	25.027	-0.035	0.006	-0.000	0.087	0.724	0.973	0.250	0.924	1.940	1.904	-0.050	-0.027	0.022
0.248	25.021	-0.037	0.005	-0.005	0.087	0.705	0.967	0.339	0.875	1.943	1.903	-0.044	-0.029	0.024
0.249	25.015	-0.038	0.004	-0.009	0.083	0.672	0.925	0.424	0.840	1.938	1.896	-0.039	-0.030	0.025
0.249	25.024	-0.042	0.003	-0.012	0.080	0.679	0.883	0.519	0.811	1.938	1.909	-0.035	-0.031	0.026
0.249	25.000	-0.040	0.002	-0.014	0.077	0.682	0.833	0.537	0.815	1.941	1.903	-0.032	-0.029	0.026
0.249	25.003	-0.041	0.001	-0.015	0.075	0.699	0.839	0.519	0.802	1.941	1.905	-0.026	-0.031	0.027
0.249	25.003	-0.041	0.003	-0.014	0.073	0.696	0.845	0.516	0.844	1.940	1.904	-0.019	-0.033	0.027
0.250	25.003	-0.040	-0.000	-0.017	0.070	0.683	0.877	0.532	0.831	1.933	1.901	-0.014	-0.033	0.027
0.250	25.015	-0.041	0.002	-0.015	0.067	0.651	0.913	0.572	0.859	1.934	1.903	-0.007	-0.032	0.027
0.250	24.979	-0.042	0.002	-0.014	0.064	0.634	0.937	0.637	0.859	1.941	1.899	-0.002	-0.031	0.027
