Comment:	20231003 sppedbump
Time	Vehicle Speed	FL Sprung acceleration	FR Sprung acceleration	RL Sprung acceleration	RR Sprung acceleration	FL Unsprung acceleration	FR Unsprung acceleration	RL Unsprung acceleration	RR Unsprung acceleration	Bellow pressure RL	Bellow pressure RR	Acceleration X	Acceleration Y	Acceleration Z
s	km/h	gn	gn	gn	gn	gn	gn	gn	gn	bar	bar	g	g	g
0.000	40.668	-0.098	0.046	-0.035	-0.208	1.296	0.190	0.022	2.047	1.858	1.794	-0.003	0.038	0.007
0.000	40.656	-0.099	0.049	-0.055	-0.176	1.304	0.147	0.015	1.891	1.857	1.797	-0.007	0.032	0.004
0.000	40.656	-0.100	0.054	-0.079	-0.141	1.295	0.132	0.134	1.693	1.861	1.791	-0.009	0.027	0.002
0.001	40.656	-0.094	0.057	-0.107	-0.105	1.296	0.094	0.323	1.599	1.849	1.798	-0.012	0.021	0.003
0.001	40.662	-0.094	0.059	-0.137	-0.070	1.238	0.101	0.475	1.616	1.846	1.800	-0.013	0.014	0.000
0.001	40.674	-0.092	0.061	-0.171	-0.039	1.198	0.089	0.587	1.809	1.844	1.796	-0.017	0.007	-0.001
0.001	40.649	-0.094	0.061	-0.209	-0.011	1.117	0.106	0.595	2.003	1.847	1.792	-0.018	-0.002	0.002
0.001	40.662	-0.097	0.061	-0.249	0.011	1.057	0.119	0.511	2.144	1.858	1.796	-0.021	-0.011	-0.001
0.002	40.659	-0.103	0.059	-0.288	0.026	1.007	0.111	0.472	2.197	1.854	1.794	-0.025	-0.019	-0.001
0.002	40.659	-0.110	0.059	-0.327	0.033	1.009	0.053	0.508	2.095	1.849	1.795	-0.027	-0.028	0.002
0.002	40.656	-0.114	0.060	-0.367	0.038	1.071	-0.016	0.589	1.950	1.853	1.797	-0.028	-0.040	0.003
0.002	40.659	-0.115	0.061	-0.405	0.042	1.162	-0.096	0.717	1.874	1.846	1.788	-0.033	-0.047	0.004
0.002	40.652	-0.113	0.063	-0.441	0.033	1.224	-0.118	0.769	1.867	1.845	1.791	-0.036	-0.055	0.005
0.003	40.665	-0.108	0.065	-0.477	0.026	1.232	-0.085	0.744	2.010	1.848	1.796	-0.038	-0.065	0.005
0.003	40.662	-0.102	0.067	-0.511	0.017	1.167	0.004	0.608	2.121	1.845	1.792	-0.039	-0.070	0.007
0.003	40.649	-0.094	0.070	-0.540	0.009	1.069	0.054	0.464	2.106	1.848	1.787	-0.042	-0.076	0.010
0.003	40.646	-0.088	0.074	-0.568	-0.002	0.980	0.066	0.383	2.021	1.847	1.795	-0.043	-0.082	0.012
0.003	40.646	-0.085	0.077	-0.589	-0.009	0.899	0.025	0.389	1.890	1.854	1.800	-0.043	-0.085	0.012
0.004	40.652	-0.083	0.085	-0.605	-0.014	0.899	-0.086	0.415	1.792	1.847	1.798	-0.043	-0.090	0.018
0.004	40.628	-0.080	0.092	-0.617	-0.018	0.937	-0.182	0.441	1.769	1.847	1.788	-0.045	-0.092	0.022
0.004	40.665	-0.074	0.095	-0.623	-0.016	1.006	-0.267	0.466	1.817	1.846	1.792	-0.046	-0.093	0.025
0.004	40.671	-0.073	0.101	-0.621	-0.010	1.037	-0.269	0.475	1.928	1.841	1.789	-0.047	-0.092	0.027
0.004	40.646	-0.070	0.106	-0.614	-0.002	1.066	-0.229	0.516	1.988	1.859	1.784	-0.047	-0.089	0.032
0.005	40.622	-0.065	0.112	-0.602	0.012	1.080	-0.192	0.540	1.989	1.842	1.790	-0.046	-0.087	0.035
0.005	40.637	-0.060	0.115	-0.584	0.030	1.081	-0.228	0.586	1.913	1.849	1.791	-0.046	-0.084	0.035
0.005	40.659	-0.059	0.118	-0.562	0.050	1.103	-0.300	0.614	1.822	1.849	1.790	-0.046	-0.079	0.036
0.005	40.646	-0.060	0.116	-0.534	0.072	1.155	-0.376	0.672	1.771	1.850	1.795	-0.046	-0.074	0.039
0.005	40.640	-0.063	0.114	-0.503	0.095	1.216	-0.431	0.762	1.696	1.843	1.793	-0.047	-0.069	0.039
0.006	40.649	-0.065	0.111	-0.468	0.119	1.287	-0.469	0.853	1.674	1.844	1.795	-0.047	-0.062	0.039
0.006	40.665	-0.066	0.107	-0.431	0.136	1.335	-0.428	0.940	1.635	1.852	1.788	-0.049	-0.053	0.039
0.006	40.634	-0.064	0.102	-0.391	0.150	1.354	-0.390	0.989	1.624	1.852	1.786	-0.049	-0.050	0.036
0.006	40.649	-0.060	0.095	-0.349	0.162	1.394	-0.397	0.928	1.621	1.842	1.786	-0.051	-0.042	0.036
0.006	40.665	-0.057	0.088	-0.310	0.166	1.448	-0.428	0.820	1.669	1.845	1.787	-0.053	-0.032	0.031
0.007	40.652	-0.052	0.082	-0.267	0.167	1.579	-0.438	0.755	1.706	1.851	1.789	-0.056	-0.029	0.029
0.007	40.677	-0.049	0.077	-0.227	0.166	1.724	-0.421	0.658	1.689	1.840	1.794	-0.057	-0.021	0.023
0.007	40.649	-0.046	0.077	-0.189	0.155	1.843	-0.360	0.669	1.644	1.840	1.791	-0.061	-0.014	0.017
0.007	40.652	-0.045	0.073	-0.149	0.141	1.891	-0.290	0.756	1.602	1.839	1.784	-0.063	-0.009	0.012
0.007	40.677	-0.044	0.075	-0.118	0.127	1.858	-0.269	0.847	1.598	1.843	1.786	-0.065	-0.004	0.009
0.008	40.701	-0.042	0.075	-0.086	0.107	1.795	-0.302	0.889	1.669	1.840	1.792	-0.066	0.003	0.005
0.008	40.646	-0.037	0.078	-0.057	0.086	1.737	-0.362	0.834	1.763	1.837	1.791	-0.070	0.007	0.001
0.008	40.668	-0.033	0.080	-0.032	0.068	1.717	-0.411	0.787	1.852	1.840	1.792	-0.075	0.013	-0.004
0.008	40.646	-0.027	0.083	-0.011	0.043	1.757	-0.400	0.781	1.888	1.841	1.790	-0.075	0.015	-0.006
0.008	40.665	-0.017	0.087	0.007	0.027	1.845	-0.335	0.821	1.852	1.842	1.782	-0.077	0.021	-0.009
0.009	40.656	-0.014	0.092	0.022	0.008	1.903	-0.250	0.918	1.805	1.836	1.787	-0.079	0.026	-0.016
0.009	40.668	-0.006	0.095	0.033	-0.004	1.945	-0.190	1.037	1.740	1.844	1.787	-0.080	0.027	-0.013
0.009	40.659	-0.006	0.095	0.038	-0.013	1.927	-0.231	1.108	1.681	1.829	1.789	-0.080	0.033	-0.017
0.009	40.662	-0.004	0.098	0.041	-0.015	1.903	-0.349	1.092	1.664	1.841	1.788	-0.081	0.039	-0.018
0.009	40.652	-0.002	0.098	0.042	-0.014	1.874	-0.471	0.990	1.693	1.831	1.784	-0.081	0.043	-0.020
0.010	40.619	0.001	0.097	0.039	-0.003	1.902	-0.555	0.834	1.717	1.846	1.785	-0.080	0.046	-0.019
0.010	40.665	0.003	0.095	0.038	0.010	1.969	-0.549	0.737	1.754	1.835	1.790	-0.080	0.053	-0.021
0.010	40.643	0.009	0.091	0.036	0.026	2.057	-0.452	0.759	1.720	1.844	1.786	-0.080	0.057	-0.021
0.010	40.643	0.013	0.084	0.037	0.044	2.087	-0.338	0.898	1.631	1.849	1.786	-0.079	0.058	-0.019
0.010	40.652	0.018	0.078	0.043	0.068	2.039	-0.254	1.068	1.559	1.840	1.788	-0.077	0.066	-0.017
0.011	40.643	0.022	0.074	0.047	0.091	1.925	-0.256	1.141	1.477	1.838	1.782	-0.080	0.074	-0.015
0.011	40.640	0.024	0.069	0.055	0.118	1.821	-0.316	1.140	1.471	1.837	1.790	-0.080	0.076	-0.013
0.011	40.652	0.026	0.065	0.067	0.146	1.792	-0.371	1.103	1.572	1.826	1.794	-0.079	0.081	-0.013
0.011	40.640	0.029	0.066	0.084	0.176	1.883	-0.377	1.014	1.730	1.840	1.786	-0.079	0.083	-0.010
0.011	40.646	0.033	0.066	0.102	0.203	2.029	-0.332	0.972	1.804	1.840	1.782	-0.080	0.087	-0.008
0.012	40.668	0.037	0.067	0.124	0.227	2.117	-0.267	0.987	1.785	1.836	1.787	-0.080	0.089	-0.007
0.012	40.662	0.043	0.069	0.149	0.252	2.116	-0.202	1.095	1.722	1.827	1.791	-0.082	0.092	-0.002
0.012	40.646	0.049	0.073	0.178	0.271	2.048	-0.204	1.250	1.677	1.836	1.795	-0.082	0.095	0.001
0.012	40.619	0.053	0.077	0.207	0.289	1.940	-0.242	1.307	1.684	1.834	1.797	-0.083	0.097	0.003
0.012	40.652	0.055	0.082	0.238	0.303	1.856	-0.290	1.240	1.767	1.839	1.785	-0.083	0.098	0.003
0.013	40.680	0.058	0.086	0.269	0.313	1.825	-0.300	1.163	1.905	1.827	1.788	-0.084	0.100	0.007
0.013	40.646	0.061	0.090	0.300	0.321	1.856	-0.256	1.139	1.989	1.832	1.782	-0.081	0.099	0.013
0.013	40.649	0.066	0.093	0.326	0.329	1.891	-0.204	1.160	1.965	1.837	1.783	-0.080	0.098	0.015
0.013	40.665	0.075	0.095	0.347	0.329	1.912	-0.166	1.240	1.857	1.827	1.785	-0.079	0.101	0.021
0.013	40.671	0.085	0.098	0.366	0.332	1.892	-0.177	1.345	1.717	1.834	1.786	-0.077	0.103	0.026
0.014	40.659	0.097	0.102	0.380	0.331	1.833	-0.243	1.414	1.579	1.834	1.789	-0.071	0.097	0.032
0.014	40.659	0.103	0.105	0.391	0.330	1.732	-0.338	1.408	1.568	1.831	1.787	-0.068	0.100	0.040
0.014	40.671	0.112	0.108	0.394	0.330	1.624	-0.399	1.297	1.695	1.831	1.783	-0.066	0.102	0.040
0.014	40.683	0.113	0.110	0.393	0.329	1.537	-0.375	1.172	1.809	1.828	1.790	-0.061	0.097	0.047
0.014	40.671	0.114	0.109	0.387	0.331	1.526	-0.312	1.045	1.880	1.833	1.789	-0.053	0.095	0.053
0.015	40.683	0.113	0.109	0.380	0.333	1.569	-0.219	0.995	1.819	1.835	1.789	-0.049	0.094	0.059
0.015	40.674	0.113	0.106	0.368	0.333	1.639	-0.180	1.042	1.665	1.832	1.787	-0.043	0.093	0.064
0.015	40.692	0.114	0.107	0.355	0.337	1.683	-0.203	1.166	1.467	1.825	1.786	-0.035	0.094	0.068
0.015	40.704	0.119	0.107	0.339	0.336	1.657	-0.284	1.246	1.389	1.827	1.787	-0.029	0.088	0.073
0.015	40.680	0.123	0.110	0.322	0.338	1.599	-0.303	1.249	1.392	1.822	1.786	-0.025	0.085	0.080
0.016	40.701	0.128	0.112	0.301	0.340	1.526	-0.319	1.246	1.519	1.822	1.782	-0.017	0.083	0.079
0.016	40.683	0.131	0.116	0.279	0.339	1.511	-0.271	1.265	1.729	1.832	1.787	-0.012	0.078	0.083
0.016	40.689	0.131	0.122	0.255	0.335	1.523	-0.207	1.274	1.832	1.823	1.785	-0.006	0.075	0.083
0.016	40.692	0.127	0.129	0.230	0.331	1.557	-0.137	1.223	1.866	1.820	1.785	0.001	0.068	0.082
0.016	40.686	0.121	0.137	0.205	0.323	1.568	-0.088	1.226	1.811	1.831	1.785	0.002	0.065	0.084
0.017	40.683	0.114	0.145	0.181	0.312	1.571	-0.063	1.288	1.759	1.819	1.788	0.004	0.060	0.082
0.017	40.692	0.105	0.149	0.156	0.300	1.534	-0.037	1.359	1.754	1.824	1.790	0.007	0.061	0.080
0.017	40.698	0.101	0.154	0.134	0.286	1.532	-0.010	1.421	1.746	1.815	1.789	0.009	0.051	0.078
0.017	40.683	0.098	0.158	0.113	0.267	1.550	0.019	1.511	1.760	1.830	1.789	0.012	0.045	0.077
0.017	40.677	0.099	0.156	0.094	0.247	1.600	0.027	1.565	1.766	1.826	1.785	0.012	0.043	0.079
0.018	40.698	0.097	0.157	0.080	0.220	1.621	0.013	1.575	1.696	1.826	1.783	0.012	0.038	0.073
0.018	40.671	0.098	0.155	0.068	0.189	1.642	-0.035	1.540	1.587	1.829	1.783	0.016	0.034	0.072
0.018	40.659	0.096	0.152	0.056	0.158	1.644	-0.084	1.442	1.505	1.828	1.789	0.010	0.032	0.069
0.018	40.680	0.090	0.151	0.042	0.123	1.602	-0.122	1.395	1.515	1.834	1.786	0.014	0.035	0.067
0.018	40.671	0.086	0.148	0.032	0.087	1.609	-0.062	1.342	1.560	1.833	1.789	0.018	0.029	0.067
0.019	40.674	0.078	0.144	0.024	0.054	1.623	0.037	1.335	1.666	1.817	1.786	0.016	0.031	0.064
0.019	40.701	0.070	0.145	0.015	0.016	1.625	0.184	1.319	1.723	1.827	1.786	0.018	0.032	0.061
0.019	40.668	0.069	0.141	0.008	-0.016	1.707	0.243	1.373	1.763	1.824	1.802	0.018	0.037	0.063
0.019	40.689	0.067	0.138	-0.000	-0.045	1.734	0.231	1.459	1.707	1.834	1.793	0.021	0.040	0.060
0.019	40.695	0.070	0.132	-0.010	-0.068	1.749	0.169	1.557	1.624	1.829	1.795	0.022	0.046	0.058
0.020	40.683	0.078	0.127	-0.018	-0.084	1.698	0.108	1.608	1.592	1.826	1.798	0.023	0.049	0.063
0.020	40.677	0.082	0.121	-0.027	-0.094	1.629	0.105	1.603	1.586	1.833	1.788	0.026	0.055	0.061
0.020	40.704	0.085	0.115	-0.038	-0.097	1.610	0.165	1.590	1.645	1.822	1.792	0.026	0.061	0.060
0.020	40.695	0.085	0.111	-0.043	-0.090	1.628	0.258	1.587	1.730	1.830	1.795	0.028	0.066	0.062
0.020	40.698	0.083	0.108	-0.050	-0.074	1.681	0.340	1.632	1.821	1.835	1.796	0.027	0.073	0.064
0.021	40.695	0.079	0.107	-0.053	-0.054	1.712	0.412	1.658	1.833	1.834	1.796	0.027	0.078	0.060
0.021	40.710	0.079	0.106	-0.057	-0.028	1.738	0.409	1.662	1.772	1.836	1.791	0.028	0.084	0.064
0.021	40.698	0.080	0.109	-0.057	0.006	1.726	0.381	1.661	1.663	1.839	1.793	0.026	0.089	0.065
0.021	40.692	0.083	0.110	-0.054	0.043	1.725	0.365	1.659	1.529	1.837	1.786	0.026	0.091	0.066
0.021	40.686	0.089	0.112	-0.049	0.083	1.757	0.354	1.603	1.491	1.839	1.795	0.022	0.096	0.068
0.022	40.701	0.095	0.114	-0.045	0.123	1.749	0.352	1.535	1.525	1.840	1.794	0.018	0.101	0.070
0.022	40.698	0.099	0.117	-0.038	0.162	1.725	0.376	1.528	1.603	1.839	1.801	0.013	0.100	0.071
0.022	40.686	0.101	0.116	-0.028	0.202	1.672	0.363	1.557	1.697	1.833	1.804	0.009	0.101	0.075
0.022	40.701	0.101	0.117	-0.017	0.240	1.611	0.349	1.591	1.723	1.837	1.787	0.004	0.101	0.080
0.022	40.704	0.100	0.116	-0.007	0.271	1.547	0.335	1.633	1.652	1.836	1.799	-0.002	0.101	0.083
0.023	40.701	0.101	0.113	0.005	0.298	1.504	0.357	1.654	1.532	1.834	1.797	-0.007	0.101	0.086
0.023	40.707	0.105	0.108	0.018	0.318	1.494	0.432	1.672	1.482	1.838	1.797	-0.011	0.099	0.092
0.023	40.686	0.112	0.101	0.025	0.331	1.528	0.461	1.634	1.527	1.841	1.803	-0.017	0.099	0.098
0.023	40.686	0.116	0.096	0.032	0.334	1.599	0.502	1.554	1.579	1.840	1.800	-0.022	0.097	0.103
0.023	40.698	0.125	0.088	0.035	0.333	1.651	0.483	1.535	1.702	1.836	1.797	-0.026	0.097	0.109
0.024	40.695	0.131	0.083	0.035	0.323	1.665	0.438	1.543	1.743	1.845	1.800	-0.029	0.098	0.115
0.024	40.683	0.134	0.076	0.033	0.308	1.604	0.399	1.590	1.749	1.839	1.800	-0.032	0.100	0.122
0.024	40.683	0.136	0.069	0.025	0.287	1.493	0.392	1.580	1.710	1.842	1.806	-0.035	0.099	0.131
0.024	40.686	0.134	0.066	0.015	0.260	1.422	0.399	1.593	1.662	1.844	1.804	-0.035	0.100	0.136
0.024	40.674	0.133	0.066	0.002	0.236	1.385	0.420	1.619	1.648	1.848	1.806	-0.035	0.102	0.143
0.025	40.701	0.133	0.066	-0.013	0.207	1.383	0.426	1.675	1.654	1.837	1.801	-0.035	0.105	0.150
0.025	40.686	0.134	0.070	-0.031	0.182	1.421	0.448	1.723	1.680	1.846	1.804	-0.035	0.107	0.158
0.025	40.680	0.136	0.073	-0.047	0.156	1.431	0.464	1.728	1.720	1.849	1.804	-0.033	0.108	0.161
0.025	40.689	0.139	0.080	-0.065	0.133	1.440	0.508	1.657	1.713	1.854	1.809	-0.033	0.112	0.163
0.025	40.689	0.142	0.084	-0.078	0.112	1.391	0.593	1.591	1.698	1.852	1.809	-0.031	0.116	0.165
0.026	40.680	0.146	0.087	-0.090	0.096	1.343	0.676	1.493	1.636	1.844	1.805	-0.030	0.118	0.167
0.026	40.698	0.148	0.090	-0.099	0.082	1.292	0.735	1.411	1.557	1.854	1.810	-0.030	0.122	0.167
0.026	40.686	0.148	0.092	-0.106	0.075	1.256	0.716	1.419	1.446	1.854	1.812	-0.031	0.124	0.166
0.026	40.680	0.145	0.094	-0.107	0.071	1.198	0.642	1.420	1.350	1.856	1.806	-0.029	0.125	0.163
0.026	40.683	0.146	0.096	-0.106	0.073	1.156	0.516	1.440	1.320	1.850	1.805	-0.029	0.125	0.159
0.027	40.671	0.145	0.097	-0.101	0.079	1.129	0.427	1.423	1.379	1.856	1.804	-0.029	0.123	0.154
0.027	40.680	0.146	0.099	-0.096	0.088	1.090	0.411	1.372	1.477	1.864	1.803	-0.030	0.121	0.146
0.027	40.701	0.146	0.102	-0.090	0.101	1.026	0.471	1.359	1.555	1.869	1.809	-0.032	0.118	0.142
0.027	40.683	0.146	0.105	-0.083	0.114	0.916	0.511	1.342	1.565	1.863	1.809	-0.033	0.119	0.136
0.027	40.668	0.142	0.111	-0.073	0.131	0.837	0.599	1.413	1.545	1.869	1.806	-0.036	0.115	0.125
0.028	40.701	0.137	0.111	-0.064	0.148	0.795	0.613	1.514	1.501	1.856	1.807	-0.038	0.111	0.117
0.028	40.701	0.132	0.112	-0.052	0.165	0.765	0.581	1.529	1.455	1.860	1.806	-0.040	0.108	0.117
0.028	40.710	0.128	0.111	-0.039	0.180	0.741	0.551	1.457	1.475	1.866	1.815	-0.041	0.103	0.113
0.028	40.683	0.125	0.108	-0.023	0.198	0.704	0.541	1.322	1.583	1.856	1.809	-0.047	0.099	0.110
0.028	40.717	0.120	0.106	-0.008	0.210	0.625	0.572	1.161	1.680	1.859	1.820	-0.047	0.096	0.111
0.029	40.698	0.124	0.101	0.007	0.223	0.580	0.595	1.051	1.706	1.856	1.810	-0.051	0.090	0.114
0.029	40.701	0.123	0.096	0.023	0.234	0.501	0.611	1.057	1.610	1.855	1.812	-0.052	0.089	0.117
0.029	40.710	0.128	0.094	0.036	0.241	0.452	0.613	1.153	1.426	1.863	1.818	-0.052	0.083	0.124
0.029	40.732	0.131	0.089	0.046	0.246	0.426	0.585	1.293	1.288	1.864	1.821	-0.053	0.086	0.131
0.029	40.692	0.129	0.085	0.056	0.250	0.393	0.571	1.415	1.189	1.856	1.814	-0.053	0.080	0.141
0.030	40.698	0.123	0.083	0.063	0.255	0.339	0.570	1.393	1.283	1.852	1.814	-0.052	0.080	0.151
0.030	40.735	0.117	0.081	0.065	0.262	0.293	0.602	1.309	1.508	1.863	1.812	-0.051	0.081	0.161
0.030	40.732	0.110	0.081	0.066	0.268	0.199	0.654	1.257	1.722	1.862	1.819	-0.050	0.083	0.172
0.030	40.747	0.103	0.082	0.065	0.278	0.084	0.707	1.295	1.798	1.857	1.816	-0.047	0.085	0.182
0.030	40.750	0.104	0.083	0.059	0.291	-0.029	0.740	1.390	1.713	1.857	1.821	-0.046	0.089	0.193
0.031	40.744	0.109	0.085	0.055	0.306	-0.123	0.750	1.531	1.531	1.861	1.812	-0.045	0.094	0.205
0.031	40.738	0.117	0.087	0.050	0.323	-0.163	0.722	1.659	1.306	1.864	1.813	-0.040	0.097	0.210
0.031	40.759	0.128	0.090	0.044	0.341	-0.130	0.687	1.697	1.231	1.858	1.818	-0.040	0.103	0.216
0.031	40.756	0.137	0.093	0.039	0.358	-0.052	0.650	1.593	1.310	1.859	1.819	-0.039	0.111	0.226
0.031	40.756	0.141	0.098	0.037	0.374	0.019	0.630	1.454	1.459	1.865	1.815	-0.037	0.116	0.230
0.032	40.775	0.141	0.101	0.035	0.393	0.062	0.603	1.340	1.597	1.869	1.818	-0.036	0.124	0.232
0.032	40.762	0.138	0.106	0.035	0.410	0.049	0.575	1.331	1.663	1.866	1.817	-0.036	0.127	0.235
0.032	40.759	0.132	0.112	0.040	0.425	-0.033	0.545	1.414	1.665	1.866	1.820	-0.035	0.133	0.235
0.032	40.747	0.128	0.116	0.047	0.442	-0.142	0.498	1.562	1.601	1.868	1.821	-0.035	0.140	0.236
0.032	40.771	0.126	0.121	0.059	0.453	-0.234	0.498	1.656	1.563	1.872	1.823	-0.035	0.145	0.231
0.033	40.759	0.128	0.125	0.076	0.465	-0.275	0.496	1.623	1.499	1.874	1.816	-0.034	0.149	0.228
0.033	40.771	0.132	0.129	0.094	0.475	-0.287	0.545	1.478	1.527	1.870	1.817	-0.036	0.153	0.224
0.033	40.768	0.140	0.132	0.111	0.481	-0.245	0.585	1.253	1.476	1.873	1.820	-0.039	0.156	0.221
0.033	40.768	0.145	0.135	0.132	0.483	-0.204	0.618	1.159	1.432	1.880	1.824	-0.035	0.159	0.218
0.033	40.765	0.150	0.139	0.148	0.481	-0.154	0.581	1.210	1.343	1.878	1.824	-0.041	0.159	0.216
0.034	40.768	0.152	0.146	0.164	0.473	-0.111	0.545	1.338	1.257	1.871	1.819	-0.041	0.165	0.214
0.034	40.759	0.152	0.151	0.177	0.459	-0.094	0.511	1.487	1.192	1.872	1.827	-0.041	0.161	0.211
0.034	40.768	0.152	0.159	0.183	0.442	-0.050	0.519	1.587	1.188	1.872	1.825	-0.042	0.159	0.212
0.034	40.775	0.151	0.162	0.186	0.418	-0.038	0.548	1.608	1.223	1.869	1.824	-0.043	0.161	0.211
0.034	40.753	0.149	0.167	0.183	0.395	-0.058	0.606	1.541	1.305	1.872	1.819	-0.044	0.158	0.212
0.035	40.759	0.148	0.169	0.170	0.370	-0.100	0.625	1.444	1.370	1.869	1.823	-0.044	0.158	0.218
0.035	40.732	0.152	0.173	0.154	0.340	-0.168	0.590	1.331	1.358	1.874	1.824	-0.041	0.156	0.218
0.035	40.744	0.156	0.174	0.133	0.310	-0.241	0.520	1.245	1.261	1.868	1.827	-0.045	0.155	0.223
0.035	40.735	0.160	0.176	0.105	0.279	-0.259	0.464	1.201	1.113	1.880	1.833	-0.044	0.157	0.226
0.035	40.765	0.167	0.176	0.072	0.248	-0.255	0.458	1.174	0.981	1.870	1.823	-0.042	0.154	0.229
0.036	40.723	0.174	0.177	0.036	0.217	-0.208	0.533	1.101	0.924	1.876	1.826	-0.042	0.153	0.235
0.036	40.704	0.178	0.175	-0.004	0.187	-0.134	0.626	1.046	0.999	1.871	1.829	-0.040	0.153	0.236
0.036	40.710	0.182	0.176	-0.046	0.156	-0.044	0.669	0.950	1.134	1.873	1.831	-0.037	0.155	0.241
0.036	40.720	0.182	0.177	-0.085	0.136	-0.002	0.666	0.945	1.308	1.875	1.825	-0.037	0.157	0.242
0.036	40.704	0.181	0.178	-0.126	0.118	-0.015	0.599	0.989	1.354	1.876	1.827	-0.033	0.157	0.242
0.037	40.726	0.182	0.180	-0.159	0.104	-0.082	0.497	1.056	1.307	1.876	1.832	-0.030	0.159	0.240
0.037	40.726	0.185	0.182	-0.190	0.094	-0.161	0.399	1.169	1.271	1.878	1.834	-0.028	0.165	0.237
0.037	40.710	0.189	0.182	-0.215	0.092	-0.239	0.347	1.240	1.241	1.876	1.825	-0.025	0.165	0.233
0.037	40.701	0.191	0.178	-0.231	0.094	-0.264	0.373	1.237	1.223	1.874	1.827	-0.023	0.170	0.230
0.037	40.729	0.196	0.179	-0.244	0.100	-0.278	0.469	1.066	1.250	1.878	1.828	-0.019	0.172	0.225
0.038	40.704	0.196	0.185	-0.254	0.110	-0.269	0.601	0.890	1.275	1.884	1.833	-0.017	0.174	0.217
0.038	40.683	0.195	0.184	-0.261	0.123	-0.267	0.660	0.752	1.227	1.875	1.832	-0.018	0.178	0.215
0.038	40.714	0.192	0.188	-0.260	0.138	-0.298	0.665	0.775	1.117	1.879	1.832	-0.015	0.178	0.202
0.038	40.704	0.191	0.195	-0.261	0.154	-0.314	0.614	0.820	1.010	1.884	1.833	-0.017	0.178	0.198
0.038	40.695	0.185	0.202	-0.262	0.171	-0.363	0.535	0.978	0.944	1.872	1.828	-0.020	0.179	0.188
0.039	40.704	0.179	0.212	-0.260	0.184	-0.407	0.514	1.172	0.896	1.881	1.832	-0.015	0.178	0.181
0.039	40.707	0.180	0.220	-0.258	0.202	-0.420	0.510	1.246	0.933	1.885	1.827	-0.020	0.177	0.177
0.039	40.689	0.174	0.232	-0.255	0.213	-0.416	0.551	1.245	0.995	1.887	1.830	-0.016	0.173	0.171
0.039	40.683	0.173	0.240	-0.249	0.218	-0.389	0.583	1.225	1.104	1.889	1.833	-0.021	0.165	0.165
0.039	40.686	0.166	0.245	-0.242	0.216	-0.425	0.555	1.164	1.180	1.878	1.833	-0.024	0.168	0.163
0.040	40.677	0.163	0.250	-0.234	0.213	-0.477	0.483	1.083	1.174	1.891	1.834	-0.026	0.161	0.162
0.040	40.671	0.154	0.252	-0.225	0.201	-0.599	0.428	0.970	1.144	1.892	1.841	-0.027	0.157	0.157
0.040	40.680	0.149	0.253	-0.220	0.183	-0.720	0.427	0.829	1.095	1.892	1.835	-0.030	0.153	0.156
0.040	40.674	0.142	0.253	-0.213	0.162	-0.835	0.463	0.761	1.080	1.895	1.836	-0.033	0.146	0.153
0.040	40.680	0.136	0.254	-0.208	0.140	-0.892	0.533	0.744	1.088	1.896	1.833	-0.034	0.142	0.152
0.041	40.689	0.132	0.254	-0.202	0.117	-0.923	0.583	0.734	1.090	1.890	1.836	-0.038	0.141	0.148
0.041	40.683	0.128	0.255	-0.198	0.097	-0.925	0.580	0.753	1.096	1.894	1.835	-0.039	0.136	0.145
0.041	40.659	0.123	0.255	-0.192	0.076	-0.926	0.544	0.809	1.058	1.897	1.842	-0.040	0.133	0.143
0.041	40.704	0.120	0.255	-0.187	0.057	-0.924	0.484	0.929	1.033	1.899	1.840	-0.043	0.131	0.139
0.041	40.677	0.109	0.255	-0.179	0.038	-0.985	0.413	1.058	1.066	1.891	1.832	-0.040	0.134	0.132
0.042	40.671	0.103	0.256	-0.171	0.019	-1.039	0.373	1.141	1.136	1.897	1.837	-0.039	0.131	0.128
0.042	40.683	0.089	0.254	-0.162	0.001	-1.094	0.397	1.123	1.174	1.892	1.840	-0.042	0.132	0.118
0.042	40.649	0.078	0.251	-0.150	-0.017	-1.180	0.451	1.096	1.160	1.902	1.842	-0.043	0.136	0.110
0.042	40.665	0.066	0.247	-0.140	-0.032	-1.243	0.542	1.069	1.114	1.904	1.847	-0.043	0.137	0.104
0.042	40.668	0.056	0.238	-0.127	-0.046	-1.270	0.577	1.034	1.035	1.899	1.840	-0.041	0.141	0.097
0.043	40.640	0.052	0.231	-0.114	-0.056	-1.292	0.609	0.971	0.937	1.908	1.842	-0.040	0.142	0.089
0.043	40.665	0.049	0.223	-0.101	-0.063	-1.299	0.582	0.889	0.844	1.911	1.840	-0.039	0.145	0.080
0.043	40.671	0.049	0.217	-0.086	-0.066	-1.293	0.553	0.804	0.776	1.905	1.840	-0.036	0.147	0.072
0.043	40.656	0.050	0.210	-0.070	-0.066	-1.277	0.521	0.784	0.727	1.897	1.844	-0.036	0.146	0.067
0.043	40.643	0.050	0.207	-0.051	-0.064	-1.261	0.518	0.799	0.712	1.908	1.843	-0.034	0.145	0.060
0.044	40.662	0.047	0.205	-0.030	-0.060	-1.247	0.545	0.807	0.747	1.904	1.840	-0.029	0.144	0.056
0.044	40.665	0.040	0.206	-0.005	-0.052	-1.234	0.579	0.814	0.800	1.903	1.842	-0.031	0.142	0.055
0.044	40.646	0.031	0.210	0.023	-0.043	-1.201	0.595	0.762	0.836	1.913	1.854	-0.026	0.138	0.051
0.044	40.662	0.023	0.212	0.054	-0.033	-1.139	0.578	0.703	0.882	1.912	1.847	-0.025	0.134	0.047
0.044	40.656	0.018	0.217	0.086	-0.021	-1.099	0.551	0.677	0.934	1.915	1.844	-0.024	0.129	0.049
0.045	40.646	0.016	0.221	0.115	-0.008	-1.050	0.517	0.695	0.957	1.920	1.842	-0.023	0.121	0.049
0.045	40.656	0.016	0.220	0.145	0.004	-1.053	0.487	0.738	0.981	1.907	1.851	-0.021	0.113	0.051
0.045	40.640	0.024	0.222	0.172	0.015	-1.060	0.447	0.715	0.986	1.916	1.855	-0.014	0.104	0.052
0.045	40.637	0.029	0.220	0.198	0.022	-1.067	0.458	0.638	0.987	1.914	1.840	-0.015	0.094	0.051
0.045	40.628	0.033	0.215	0.220	0.024	-1.062	0.462	0.567	0.986	1.924	1.844	-0.013	0.084	0.052
0.046	40.628	0.033	0.212	0.235	0.023	-1.001	0.487	0.525	0.971	1.926	1.848	-0.010	0.072	0.052
0.046	40.628	0.030	0.208	0.246	0.016	-0.888	0.495	0.483	0.930	1.925	1.853	-0.009	0.061	0.055
0.046	40.613	0.028	0.203	0.253	0.004	-0.768	0.530	0.483	0.869	1.919	1.853	-0.006	0.050	0.054
0.046	40.607	0.027	0.199	0.257	-0.009	-0.677	0.530	0.544	0.731	1.921	1.845	-0.007	0.037	0.054
0.046	40.622	0.029	0.197	0.255	-0.023	-0.614	0.538	0.638	0.631	1.930	1.848	-0.005	0.027	0.053
0.047	40.616	0.033	0.195	0.252	-0.037	-0.587	0.568	0.701	0.604	1.930	1.849	-0.006	0.015	0.053
0.047	40.598	0.042	0.194	0.246	-0.048	-0.574	0.563	0.631	0.705	1.932	1.851	-0.003	0.002	0.049
0.047	40.619	0.051	0.192	0.241	-0.053	-0.569	0.541	0.459	0.873	1.932	1.848	-0.002	-0.009	0.048
0.047	40.591	0.061	0.190	0.234	-0.056	-0.541	0.514	0.229	1.051	1.932	1.855	-0.001	-0.021	0.045
0.047	40.598	0.065	0.186	0.227	-0.053	-0.495	0.482	0.013	1.127	1.939	1.852	-0.001	-0.032	0.044
0.048	40.604	0.067	0.184	0.220	-0.046	-0.487	0.464	-0.065	1.098	1.931	1.850	-0.001	-0.041	0.039
0.048	40.579	0.070	0.184	0.211	-0.033	-0.471	0.490	0.007	0.998	1.928	1.850	-0.002	-0.050	0.032
0.048	40.576	0.068	0.179	0.205	-0.015	-0.468	0.526	0.171	0.900	1.926	1.849	-0.002	-0.058	0.031
0.048	40.594	0.070	0.178	0.192	0.005	-0.456	0.578	0.256	0.841	1.938	1.856	-0.001	-0.069	0.025
0.048	40.588	0.074	0.177	0.181	0.032	-0.429	0.607	0.181	0.870	1.943	1.850	-0.005	-0.075	0.019
0.049	40.570	0.074	0.177	0.168	0.064	-0.393	0.620	0.021	0.949	1.937	1.857	-0.004	-0.080	0.013
0.049	40.591	0.078	0.178	0.157	0.098	-0.304	0.594	-0.134	0.991	1.931	1.850	-0.006	-0.088	0.007
0.049	40.552	0.080	0.176	0.144	0.139	-0.215	0.545	-0.172	1.022	1.935	1.853	-0.009	-0.092	0.001
0.049	40.546	0.073	0.173	0.135	0.181	-0.174	0.488	-0.082	0.992	1.940	1.855	-0.009	-0.097	-0.007
0.049	40.570	0.070	0.167	0.123	0.226	-0.179	0.422	0.074	0.975	1.943	1.858	-0.014	-0.101	-0.013
0.050	40.549	0.061	0.161	0.115	0.264	-0.218	0.432	0.223	0.937	1.949	1.863	-0.014	-0.107	-0.021
0.050	40.521	0.052	0.151	0.110	0.301	-0.270	0.460	0.240	0.937	1.939	1.860	-0.017	-0.109	-0.028
0.050	40.567	0.043	0.142	0.105	0.327	-0.288	0.549	0.120	0.945	1.940	1.855	-0.020	-0.113	-0.033
0.050	40.512	0.036	0.132	0.104	0.348	-0.235	0.613	-0.051	0.913	1.939	1.853	-0.024	-0.116	-0.041
0.050	40.521	0.030	0.118	0.100	0.359	-0.149	0.672	-0.167	0.878	1.939	1.857	-0.027	-0.118	-0.051
0.051	40.549	0.027	0.111	0.101	0.361	-0.061	0.689	-0.195	0.804	1.945	1.856	-0.030	-0.118	-0.059
0.051	40.512	0.023	0.103	0.099	0.353	0.015	0.706	-0.122	0.725	1.942	1.860	-0.035	-0.120	-0.064
0.051	40.512	0.017	0.096	0.098	0.338	0.028	0.707	-0.011	0.693	1.935	1.862	-0.037	-0.123	-0.072
0.051	40.515	0.012	0.093	0.098	0.315	0.003	0.729	-0.014	0.704	1.950	1.857	-0.038	-0.123	-0.077
0.051	40.521	0.004	0.090	0.100	0.288	-0.069	0.763	-0.059	0.805	1.948	1.858	-0.044	-0.122	-0.084
0.052	40.518	-0.006	0.089	0.104	0.253	-0.130	0.805	-0.167	0.893	1.945	1.853	-0.046	-0.124	-0.089
0.052	40.521	-0.015	0.091	0.108	0.215	-0.181	0.831	-0.259	0.926	1.952	1.862	-0.048	-0.125	-0.094
0.052	40.524	-0.024	0.092	0.108	0.174	-0.183	0.824	-0.271	0.946	1.947	1.859	-0.051	-0.119	-0.098
0.052	40.512	-0.030	0.094	0.112	0.130	-0.183	0.825	-0.154	0.836	1.956	1.862	-0.053	-0.123	-0.103
0.052	40.533	-0.034	0.094	0.115	0.087	-0.155	0.838	0.011	0.762	1.962	1.861	-0.053	-0.121	-0.101
0.053	40.512	-0.037	0.097	0.117	0.043	-0.142	0.864	0.084	0.778	1.955	1.856	-0.053	-0.120	-0.102
0.053	40.515	-0.040	0.101	0.117	0.002	-0.175	0.882	0.098	0.859	1.957	1.858	-0.054	-0.118	-0.104
0.053	40.518	-0.045	0.103	0.113	-0.033	-0.292	0.886	-0.019	1.014	1.957	1.868	-0.054	-0.115	-0.105
0.053	40.530	-0.051	0.106	0.108	-0.064	-0.429	0.872	-0.198	1.094	1.954	1.861	-0.055	-0.111	-0.103
0.053	40.524	-0.059	0.107	0.103	-0.083	-0.516	0.813	-0.367	1.027	1.956	1.864	-0.054	-0.107	-0.100
0.054	40.506	-0.066	0.109	0.097	-0.097	-0.563	0.717	-0.421	0.862	1.962	1.863	-0.053	-0.103	-0.099
0.054	40.509	-0.076	0.108	0.086	-0.103	-0.544	0.650	-0.387	0.662	1.955	1.868	-0.054	-0.098	-0.095
0.054	40.543	-0.087	0.103	0.076	-0.101	-0.520	0.627	-0.302	0.533	1.964	1.860	-0.050	-0.092	-0.092
0.054	40.527	-0.092	0.101	0.068	-0.092	-0.483	0.648	-0.279	0.522	1.957	1.862	-0.050	-0.087	-0.086
0.054	40.521	-0.096	0.094	0.060	-0.078	-0.449	0.684	-0.412	0.664	1.953	1.867	-0.048	-0.081	-0.081
0.055	40.543	-0.099	0.085	0.051	-0.062	-0.441	0.730	-0.611	0.762	1.968	1.866	-0.050	-0.073	-0.073
0.055	40.533	-0.101	0.075	0.046	-0.035	-0.457	0.780	-0.761	0.851	1.965	1.866	-0.050	-0.068	-0.065
0.055	40.543	-0.104	0.064	0.040	-0.008	-0.493	0.808	-0.776	0.795	1.964	1.870	-0.049	-0.062	-0.058
0.055	40.549	-0.107	0.053	0.038	0.022	-0.542	0.825	-0.696	0.698	1.955	1.866	-0.050	-0.055	-0.052
0.055	40.527	-0.110	0.043	0.033	0.051	-0.585	0.790	-0.563	0.666	1.962	1.867	-0.052	-0.046	-0.041
0.056	40.558	-0.115	0.036	0.029	0.080	-0.598	0.744	-0.449	0.731	1.969	1.869	-0.052	-0.039	-0.033
0.056	40.564	-0.118	0.029	0.021	0.107	-0.610	0.694	-0.440	0.885	1.960	1.876	-0.054	-0.036	-0.023
0.056	40.558	-0.121	0.027	0.016	0.132	-0.589	0.713	-0.555	1.040	1.964	1.871	-0.058	-0.030	-0.013
0.056	40.567	-0.123	0.026	0.009	0.155	-0.524	0.761	-0.674	1.104	1.973	1.876	-0.058	-0.023	-0.007
0.056	40.579	-0.122	0.024	-0.002	0.173	-0.424	0.819	-0.732	1.089	1.963	1.863	-0.059	-0.019	0.002
0.057	40.579	-0.124	0.025	-0.013	0.188	-0.323	0.888	-0.719	0.926	1.968	1.868	-0.060	-0.014	0.010
0.057	40.573	-0.123	0.024	-0.025	0.200	-0.230	0.912	-0.691	0.732	1.961	1.875	-0.064	-0.008	0.018
0.057	40.607	-0.124	0.023	-0.038	0.207	-0.174	0.921	-0.652	0.653	1.961	1.874	-0.066	-0.004	0.025
0.057	40.576	-0.120	0.023	-0.052	0.205	-0.181	0.882	-0.693	0.689	1.967	1.876	-0.067	0.003	0.033
0.057	40.588	-0.115	0.023	-0.062	0.201	-0.179	0.868	-0.802	0.835	1.966	1.872	-0.070	0.006	0.039
0.058	40.594	-0.108	0.018	-0.074	0.194	-0.193	0.798	-1.018	0.969	1.965	1.874	-0.071	0.012	0.047
0.058	40.598	-0.101	0.017	-0.083	0.180	-0.153	0.767	-1.190	1.075	1.962	1.875	-0.071	0.015	0.049
0.058	40.564	-0.095	0.017	-0.091	0.165	-0.062	0.792	-1.216	1.067	1.967	1.876	-0.073	0.020	0.057
0.058	40.601	-0.091	0.013	-0.097	0.147	0.060	0.820	-1.135	0.954	1.971	1.874	-0.074	0.024	0.065
0.058	40.610	-0.086	0.011	-0.097	0.124	0.206	0.875	-0.975	0.802	1.969	1.876	-0.074	0.025	0.063
0.059	40.558	-0.082	0.008	-0.096	0.103	0.322	0.909	-0.873	0.808	1.964	1.873	-0.079	0.028	0.065
0.059	40.607	-0.085	0.004	-0.090	0.079	0.397	0.892	-0.852	0.901	1.971	1.873	-0.077	0.031	0.066
0.059	40.576	-0.081	-0.001	-0.083	0.060	0.457	0.885	-0.914	1.064	1.975	1.874	-0.080	0.031	0.068
0.059	40.594	-0.082	-0.008	-0.073	0.044	0.476	0.880	-1.048	1.101	1.974	1.877	-0.077	0.030	0.064
0.059	40.594	-0.081	-0.015	-0.059	0.027	0.470	0.852	-1.208	1.067	1.986	1.873	-0.081	0.030	0.062
0.060	40.604	-0.080	-0.023	-0.046	0.016	0.457	0.825	-1.219	0.989	1.977	1.874	-0.080	0.031	0.058
0.060	40.610	-0.077	-0.030	-0.031	0.007	0.493	0.819	-1.136	0.919	1.984	1.868	-0.085	0.028	0.053
0.060	40.598	-0.077	-0.036	-0.017	0.002	0.528	0.808	-1.042	0.914	1.976	1.876	-0.085	0.024	0.048
0.060	40.604	-0.076	-0.041	-0.002	-0.001	0.616	0.819	-1.066	0.996	1.982	1.881	-0.087	0.020	0.040
0.060	40.616	-0.078	-0.044	0.014	-0.001	0.718	0.862	-1.162	1.076	1.978	1.875	-0.089	0.018	0.033
0.061	40.616	-0.081	-0.047	0.028	0.004	0.816	0.885	-1.240	1.088	1.978	1.875	-0.090	0.014	0.027
0.061	40.637	-0.086	-0.047	0.039	0.011	0.904	0.910	-1.274	1.004	1.979	1.877	-0.091	0.007	0.020
0.061	40.610	-0.092	-0.048	0.049	0.022	0.962	0.906	-1.254	0.916	1.978	1.880	-0.094	0.001	0.014
0.061	40.607	-0.101	-0.048	0.057	0.037	0.992	0.924	-1.228	0.882	1.968	1.879	-0.093	-0.005	0.006
0.061	40.619	-0.108	-0.050	0.063	0.053	1.003	0.941	-1.277	0.889	1.981	1.876	-0.094	-0.011	0.000
0.062	40.625	-0.111	-0.052	0.069	0.071	1.001	0.968	-1.324	0.897	1.977	1.873	-0.092	-0.015	-0.005
0.062	40.604	-0.115	-0.057	0.074	0.087	0.980	0.986	-1.361	0.877	1.980	1.872	-0.092	-0.021	-0.009
0.062	40.625	-0.113	-0.064	0.077	0.103	1.007	0.990	-1.389	0.887	1.986	1.869	-0.090	-0.027	-0.015
0.062	40.640	-0.115	-0.071	0.075	0.111	1.062	0.973	-1.355	0.857	1.980	1.869	-0.087	-0.030	-0.015
0.062	40.625	-0.118	-0.078	0.074	0.121	1.143	0.947	-1.321	0.845	1.988	1.880	-0.084	-0.033	-0.016
0.063	40.613	-0.124	-0.086	0.072	0.123	1.191	0.895	-1.336	0.811	1.987	1.878	-0.077	-0.037	-0.014
0.063	40.610	-0.131	-0.092	0.068	0.123	1.205	0.852	-1.359	0.814	1.983	1.874	-0.072	-0.037	-0.016
0.063	40.613	-0.140	-0.098	0.064	0.118	1.189	0.864	-1.457	0.838	1.982	1.873	-0.068	-0.035	-0.012
0.063	40.604	-0.149	-0.105	0.060	0.113	1.150	0.890	-1.530	0.876	1.984	1.873	-0.061	-0.039	-0.009
0.063	40.637	-0.154	-0.111	0.055	0.105	1.113	0.929	-1.560	0.902	1.984	1.881	-0.050	-0.038	-0.005
0.064	40.631	-0.160	-0.117	0.048	0.096	1.092	0.959	-1.565	0.864	1.984	1.875	-0.048	-0.035	0.002
0.064	40.616	-0.160	-0.125	0.040	0.087	1.116	0.972	-1.503	0.784	1.995	1.868	-0.035	-0.034	0.009
0.064	40.628	-0.160	-0.133	0.030	0.080	1.124	0.943	-1.367	0.702	1.983	1.875	-0.027	-0.031	0.017
0.064	40.628	-0.163	-0.142	0.022	0.069	1.144	0.884	-1.250	0.708	1.982	1.876	-0.019	-0.029	0.027
0.064	40.625	-0.164	-0.147	0.015	0.060	1.153	0.840	-1.260	0.788	1.986	1.881	-0.012	-0.026	0.034
0.065	40.640	-0.168	-0.158	0.008	0.051	1.145	0.768	-1.301	0.987	1.979	1.877	-0.002	-0.023	0.046
0.065	40.637	-0.176	-0.163	0.001	0.039	1.147	0.760	-1.357	1.196	1.991	1.874	0.004	-0.020	0.058
0.065	40.619	-0.182	-0.168	-0.003	0.030	1.189	0.768	-1.394	1.299	1.993	1.876	0.012	-0.018	0.066
0.065	40.671	-0.192	-0.171	-0.008	0.024	1.224	0.800	-1.413	1.199	1.981	1.877	0.018	-0.014	0.075
0.065	40.652	-0.197	-0.171	-0.012	0.020	1.250	0.847	-1.379	1.001	1.984	1.876	0.023	-0.013	0.087
0.066	40.680	-0.201	-0.174	-0.014	0.022	1.222	0.863	-1.354	0.791	1.984	1.877	0.028	-0.011	0.095
0.066	40.674	-0.207	-0.175	-0.017	0.028	1.184	0.843	-1.360	0.652	1.982	1.872	0.033	-0.007	0.103
0.066	40.680	-0.211	-0.175	-0.019	0.035	1.071	0.772	-1.454	0.609	1.982	1.879	0.035	-0.006	0.112
0.066	40.671	-0.214	-0.174	-0.022	0.049	0.978	0.698	-1.564	0.645	1.982	1.870	0.038	-0.004	0.119
0.066	40.707	-0.217	-0.172	-0.024	0.063	0.917	0.647	-1.662	0.731	1.987	1.876	0.043	-0.003	0.125
0.067	40.723	-0.222	-0.170	-0.022	0.080	0.901	0.658	-1.672	0.807	1.985	1.871	0.045	-0.002	0.131
0.067	40.714	-0.225	-0.170	-0.018	0.098	0.898	0.728	-1.605	0.815	1.980	1.880	0.045	-0.002	0.136
0.067	40.720	-0.228	-0.172	-0.014	0.114	0.898	0.797	-1.512	0.836	1.980	1.874	0.043	-0.002	0.138
0.067	40.744	-0.228	-0.176	-0.010	0.130	0.908	0.820	-1.396	0.893	1.971	1.870	0.043	0.003	0.140
0.067	40.750	-0.229	-0.181	-0.005	0.140	0.878	0.804	-1.312	0.968	1.975	1.866	0.043	-0.000	0.139
0.068	40.744	-0.223	-0.186	-0.001	0.149	0.886	0.754	-1.290	1.042	1.982	1.875	0.044	-0.001	0.139
0.068	40.756	-0.223	-0.193	0.002	0.154	0.897	0.705	-1.268	1.081	1.985	1.872	0.042	-0.002	0.138
0.068	40.771	-0.222	-0.199	0.001	0.154	0.887	0.719	-1.287	1.034	1.971	1.872	0.043	0.001	0.130
0.068	40.753	-0.224	-0.201	-0.001	0.153	0.894	0.795	-1.287	0.916	1.980	1.864	0.041	0.001	0.125
0.068	40.771	-0.224	-0.209	-0.004	0.148	0.898	0.821	-1.304	0.805	1.982	1.868	0.044	0.002	0.120
0.069	40.775	-0.224	-0.214	-0.009	0.137	0.881	0.865	-1.336	0.715	1.975	1.866	0.042	0.002	0.114
0.069	40.756	-0.228	-0.219	-0.014	0.126	0.834	0.819	-1.382	0.717	1.975	1.862	0.041	0.004	0.105
0.069	40.796	-0.230	-0.219	-0.023	0.108	0.776	0.781	-1.464	0.749	1.975	1.867	0.044	0.004	0.092
0.069	40.778	-0.227	-0.221	-0.032	0.089	0.711	0.727	-1.515	0.819	1.977	1.860	0.041	0.004	0.087
0.069	40.771	-0.224	-0.221	-0.043	0.072	0.625	0.719	-1.518	0.874	1.973	1.862	0.041	0.002	0.077
0.070	40.796	-0.221	-0.221	-0.056	0.052	0.601	0.744	-1.505	0.870	1.967	1.859	0.039	0.003	0.066
0.070	40.768	-0.214	-0.221	-0.071	0.034	0.654	0.808	-1.476	0.800	1.971	1.859	0.038	0.003	0.059
0.070	40.787	-0.211	-0.220	-0.086	0.022	0.780	0.888	-1.431	0.735	1.970	1.858	0.037	0.000	0.049
0.070	40.762	-0.209	-0.218	-0.102	0.013	0.951	0.928	-1.373	0.707	1.970	1.858	0.037	-0.003	0.042
0.070	40.747	-0.208	-0.215	-0.119	0.009	1.081	0.906	-1.345	0.744	1.963	1.864	0.035	-0.004	0.031
0.071	40.771	-0.208	-0.213	-0.138	0.006	1.151	0.816	-1.401	0.765	1.960	1.863	0.031	-0.004	0.026
0.071	40.750	-0.208	-0.210	-0.156	0.008	1.130	0.712	-1.422	0.744	1.964	1.865	0.028	-0.010	0.014
0.071	40.744	-0.206	-0.208	-0.174	0.013	1.086	0.630	-1.378	0.707	1.967	1.855	0.025	-0.014	0.007
0.071	40.741	-0.203	-0.204	-0.194	0.022	1.059	0.620	-1.335	0.679	1.960	1.860	0.020	-0.018	0.001
0.071	40.747	-0.202	-0.200	-0.212	0.030	1.069	0.662	-1.306	0.672	1.961	1.864	0.018	-0.023	-0.007
0.072	40.744	-0.201	-0.197	-0.229	0.040	1.105	0.713	-1.377	0.711	1.960	1.860	0.013	-0.027	-0.015
0.072	40.735	-0.203	-0.195	-0.245	0.051	1.160	0.705	-1.403	0.833	1.962	1.856	0.008	-0.030	-0.019
0.072	40.710	-0.205	-0.193	-0.259	0.060	1.222	0.678	-1.316	0.970	1.959	1.861	0.002	-0.036	-0.024
0.072	40.717	-0.207	-0.195	-0.270	0.069	1.299	0.634	-1.200	1.001	1.961	1.861	-0.003	-0.039	-0.027
0.072	40.744	-0.208	-0.198	-0.281	0.075	1.372	0.558	-1.062	0.968	1.952	1.860	-0.009	-0.041	-0.031
0.073	40.704	-0.209	-0.202	-0.286	0.081	1.494	0.531	-1.003	0.913	1.951	1.853	-0.014	-0.047	-0.032
0.073	40.723	-0.210	-0.208	-0.290	0.081	1.614	0.507	-1.008	0.886	1.957	1.855	-0.020	-0.049	-0.035
0.073	40.717	-0.210	-0.214	-0.292	0.078	1.686	0.544	-1.074	0.890	1.948	1.859	-0.025	-0.052	-0.035
0.073	40.707	-0.211	-0.220	-0.290	0.069	1.763	0.559	-1.184	0.883	1.954	1.854	-0.028	-0.055	-0.034
0.073	40.720	-0.213	-0.227	-0.286	0.057	1.768	0.566	-1.273	0.887	1.956	1.849	-0.034	-0.055	-0.035
0.074	40.710	-0.216	-0.234	-0.283	0.040	1.741	0.546	-1.293	0.893	1.957	1.852	-0.038	-0.056	-0.031
0.074	40.714	-0.220	-0.240	-0.276	0.016	1.694	0.546	-1.261	0.902	1.945	1.861	-0.039	-0.056	-0.024
0.074	40.692	-0.224	-0.245	-0.266	-0.008	1.669	0.548	-1.172	0.979	1.937	1.846	-0.041	-0.053	-0.023
0.074	40.701	-0.226	-0.248	-0.258	-0.036	1.696	0.580	-1.159	1.046	1.945	1.848	-0.046	-0.053	-0.019
0.074	40.698	-0.232	-0.249	-0.247	-0.065	1.760	0.607	-1.204	1.092	1.939	1.849	-0.044	-0.052	-0.012
0.075	40.732	-0.233	-0.246	-0.238	-0.089	1.847	0.614	-1.257	1.077	1.938	1.851	-0.045	-0.050	-0.005
0.075	40.717	-0.235	-0.245	-0.230	-0.112	1.882	0.566	-1.252	1.030	1.943	1.848	-0.047	-0.043	-0.003
0.075	40.707	-0.235	-0.243	-0.224	-0.132	1.831	0.484	-1.176	0.975	1.940	1.844	-0.047	-0.045	0.004
0.075	40.717	-0.235	-0.240	-0.220	-0.144	1.749	0.393	-1.089	0.896	1.942	1.845	-0.047	-0.040	0.012
0.075	40.707	-0.233	-0.237	-0.219	-0.154	1.671	0.319	-0.991	0.839	1.940	1.842	-0.044	-0.037	0.019
0.076	40.692	-0.234	-0.236	-0.219	-0.157	1.626	0.286	-0.831	0.843	1.938	1.840	-0.049	-0.036	0.025
0.076	40.710	-0.238	-0.231	-0.221	-0.154	1.646	0.283	-0.749	0.859	1.934	1.849	-0.049	-0.032	0.033
0.076	40.710	-0.241	-0.228	-0.225	-0.147	1.690	0.327	-0.724	0.908	1.928	1.848	-0.049	-0.034	0.041
0.076	40.704	-0.245	-0.227	-0.232	-0.130	1.697	0.383	-0.698	1.008	1.924	1.840	-0.051	-0.033	0.051
0.076	40.714	-0.254	-0.222	-0.241	-0.106	1.645	0.410	-0.634	1.086	1.926	1.842	-0.053	-0.033	0.058
0.077	40.707	-0.260	-0.219	-0.254	-0.076	1.565	0.365	-0.583	1.119	1.926	1.831	-0.054	-0.034	0.061
0.077	40.723	-0.262	-0.217	-0.269	-0.038	1.454	0.288	-0.512	1.114	1.924	1.836	-0.060	-0.036	0.068
0.077	40.726	-0.264	-0.214	-0.290	0.006	1.341	0.245	-0.426	1.072	1.929	1.843	-0.062	-0.040	0.074
0.077	40.720	-0.263	-0.212	-0.312	0.053	1.294	0.265	-0.400	1.048	1.924	1.843	-0.067	-0.044	0.077
0.077	40.714	-0.263	-0.212	-0.336	0.100	1.299	0.328	-0.413	1.114	1.921	1.838	-0.071	-0.047	0.083
0.078	40.726	-0.262	-0.208	-0.360	0.150	1.332	0.432	-0.483	1.177	1.925	1.840	-0.078	-0.050	0.083
0.078	40.717	-0.259	-0.207	-0.383	0.195	1.389	0.473	-0.518	1.192	1.931	1.833	-0.082	-0.060	0.087
0.078	40.738	-0.259	-0.207	-0.408	0.237	1.402	0.435	-0.459	1.198	1.922	1.839	-0.089	-0.059	0.087
0.078	40.765	-0.259	-0.201	-0.436	0.272	1.369	0.407	-0.387	1.124	1.912	1.830	-0.096	-0.066	0.078
0.078	40.741	-0.260	-0.198	-0.463	0.304	1.300	0.352	-0.265	1.083	1.914	1.832	-0.104	-0.073	0.084
0.079	40.738	-0.261	-0.197	-0.490	0.329	1.234	0.322	-0.128	1.088	1.917	1.830	-0.107	-0.078	0.078
0.079	40.741	-0.258	-0.196	-0.517	0.347	1.198	0.364	-0.171	1.147	1.908	1.833	-0.117	-0.082	0.077
0.079	40.750	-0.258	-0.193	-0.539	0.356	1.159	0.390	-0.266	1.204	1.913	1.829	-0.121	-0.084	0.068
0.079	40.756	-0.255	-0.189	-0.564	0.358	1.103	0.422	-0.318	1.227	1.915	1.827	-0.126	-0.086	0.061
0.079	40.759	-0.247	-0.185	-0.586	0.352	1.063	0.405	-0.341	1.216	1.911	1.834	-0.134	-0.086	0.055
0.080	40.759	-0.238	-0.182	-0.611	0.337	1.002	0.375	-0.305	1.148	1.910	1.817	-0.137	-0.086	0.050
0.080	40.750	-0.229	-0.178	-0.631	0.315	0.956	0.363	-0.219	1.018	1.914	1.828	-0.141	-0.085	0.039
0.080	40.753	-0.222	-0.174	-0.650	0.286	0.947	0.352	-0.112	0.929	1.909	1.819	-0.145	-0.082	0.029
0.080	40.775	-0.212	-0.170	-0.666	0.253	0.975	0.387	0.014	0.929	1.910	1.822	-0.149	-0.077	0.025
0.080	40.784	-0.207	-0.165	-0.679	0.221	0.978	0.423	0.070	0.993	1.909	1.824	-0.150	-0.073	0.015
0.081	40.775	-0.200	-0.158	-0.691	0.189	0.990	0.470	0.065	1.118	1.908	1.821	-0.155	-0.066	0.005
0.081	40.781	-0.194	-0.154	-0.698	0.156	0.974	0.477	0.014	1.252	1.906	1.816	-0.158	-0.062	-0.002
0.081	40.759	-0.189	-0.150	-0.700	0.132	0.925	0.464	-0.014	1.321	1.898	1.815	-0.160	-0.057	-0.010
0.081	40.771	-0.181	-0.147	-0.701	0.107	0.854	0.438	-0.043	1.256	1.906	1.820	-0.162	-0.049	-0.017
0.081	40.790	-0.174	-0.146	-0.694	0.090	0.796	0.414	-0.007	1.110	1.896	1.806	-0.163	-0.042	-0.025
0.082	40.775	-0.161	-0.144	-0.680	0.074	0.759	0.427	0.050	0.978	1.895	1.814	-0.162	-0.036	-0.033
0.082	40.784	-0.149	-0.142	-0.664	0.061	0.765	0.472	0.058	0.954	1.896	1.813	-0.166	-0.028	-0.039
0.082	40.778	-0.139	-0.139	-0.644	0.052	0.784	0.556	0.047	1.026	1.900	1.812	-0.167	-0.022	-0.048
0.082	40.775	-0.131	-0.136	-0.623	0.046	0.823	0.620	0.064	1.157	1.901	1.813	-0.163	-0.013	-0.055
0.082	40.790	-0.122	-0.129	-0.597	0.042	0.877	0.653	0.084	1.316	1.899	1.810	-0.164	-0.008	-0.063
0.083	40.781	-0.119	-0.121	-0.572	0.041	0.897	0.639	0.100	1.390	1.889	1.814	-0.163	-0.001	-0.069
0.083	40.762	-0.116	-0.114	-0.545	0.042	0.890	0.582	0.143	1.407	1.895	1.809	-0.162	0.005	-0.075
0.083	40.778	-0.113	-0.106	-0.523	0.044	0.829	0.494	0.161	1.379	1.897	1.807	-0.162	0.011	-0.083
0.083	40.781	-0.110	-0.098	-0.497	0.045	0.779	0.404	0.210	1.378	1.895	1.806	-0.159	0.018	-0.089
0.083	40.790	-0.107	-0.089	-0.474	0.045	0.753	0.346	0.253	1.373	1.893	1.810	-0.158	0.023	-0.095
0.084	40.790	-0.097	-0.085	-0.451	0.043	0.784	0.310	0.276	1.375	1.891	1.808	-0.156	0.027	-0.101
0.084	40.784	-0.089	-0.083	-0.424	0.038	0.836	0.310	0.282	1.325	1.884	1.803	-0.155	0.033	-0.104
0.084	40.793	-0.083	-0.080	-0.399	0.025	0.911	0.335	0.243	1.243	1.892	1.799	-0.150	0.036	-0.111
0.084	40.787	-0.074	-0.079	-0.373	0.008	0.995	0.368	0.194	1.137	1.892	1.805	-0.150	0.040	-0.116
0.084	40.793	-0.069	-0.080	-0.347	-0.013	1.027	0.385	0.169	1.063	1.891	1.804	-0.148	0.046	-0.117
0.085	40.802	-0.064	-0.077	-0.321	-0.040	0.966	0.399	0.225	1.039	1.893	1.804	-0.148	0.047	-0.118
0.085	40.814	-0.060	-0.077	-0.297	-0.070	0.905	0.410	0.322	1.111	1.891	1.800	-0.146	0.050	-0.122
0.085	40.811	-0.057	-0.077	-0.273	-0.106	0.863	0.401	0.420	1.226	1.878	1.803	-0.145	0.055	-0.122
0.085	40.808	-0.051	-0.076	-0.252	-0.138	0.866	0.403	0.478	1.331	1.879	1.800	-0.145	0.057	-0.120
0.085	40.811	-0.047	-0.077	-0.233	-0.172	0.929	0.390	0.483	1.393	1.877	1.799	-0.143	0.056	-0.118
0.086	40.829	-0.043	-0.078	-0.215	-0.206	1.005	0.395	0.511	1.389	1.883	1.799	-0.142	0.058	-0.118
0.086	40.808	-0.040	-0.077	-0.200	-0.240	1.090	0.417	0.504	1.296	1.878	1.796	-0.141	0.062	-0.114
0.086	40.817	-0.038	-0.080	-0.185	-0.272	1.137	0.421	0.487	1.173	1.881	1.798	-0.142	0.062	-0.115
0.086	40.808	-0.039	-0.081	-0.172	-0.303	1.165	0.441	0.497	1.056	1.880	1.797	-0.140	0.061	-0.114
0.086	40.802	-0.041	-0.082	-0.158	-0.329	1.125	0.471	0.506	1.039	1.874	1.798	-0.141	0.063	-0.113
0.087	40.802	-0.041	-0.088	-0.148	-0.351	1.057	0.500	0.514	1.127	1.877	1.793	-0.138	0.066	-0.110
0.087	40.808	-0.041	-0.089	-0.141	-0.371	1.005	0.520	0.521	1.244	1.865	1.797	-0.137	0.068	-0.107
0.087	40.802	-0.036	-0.089	-0.137	-0.385	0.982	0.516	0.478	1.359	1.866	1.788	-0.134	0.070	-0.106
0.087	40.805	-0.029	-0.087	-0.134	-0.393	0.999	0.513	0.434	1.433	1.868	1.787	-0.132	0.072	-0.105
0.087	40.802	-0.024	-0.084	-0.135	-0.395	1.039	0.555	0.425	1.481	1.873	1.789	-0.131	0.075	-0.105
0.088	40.787	-0.021	-0.080	-0.138	-0.389	1.058	0.545	0.407	1.468	1.870	1.786	-0.126	0.081	-0.107
0.088	40.808	-0.016	-0.073	-0.142	-0.377	1.057	0.546	0.450	1.392	1.864	1.785	-0.122	0.084	-0.105
0.088	40.802	-0.012	-0.066	-0.145	-0.358	1.094	0.534	0.555	1.347	1.859	1.787	-0.117	0.085	-0.104
0.088	40.802	-0.017	-0.059	-0.146	-0.331	1.092	0.482	0.689	1.337	1.864	1.782	-0.111	0.094	-0.108
0.088	40.787	-0.019	-0.047	-0.144	-0.295	1.094	0.471	0.767	1.340	1.865	1.788	-0.106	0.097	-0.109
0.089	40.787	-0.023	-0.038	-0.142	-0.253	1.075	0.440	0.760	1.404	1.858	1.788	-0.099	0.100	-0.104
0.089	40.793	-0.024	-0.026	-0.134	-0.203	1.069	0.454	0.613	1.430	1.865	1.773	-0.091	0.105	-0.111
0.089	40.787	-0.020	-0.016	-0.125	-0.157	1.026	0.488	0.444	1.442	1.858	1.781	-0.084	0.110	-0.110
0.089	40.768	-0.014	-0.008	-0.113	-0.108	0.973	0.508	0.367	1.372	1.858	1.781	-0.075	0.113	-0.110
0.089	40.768	-0.006	0.002	-0.097	-0.060	0.900	0.534	0.462	1.286	1.859	1.777	-0.069	0.117	-0.111
0.090	40.762	-0.001	0.010	-0.078	-0.016	0.859	0.536	0.678	1.212	1.849	1.781	-0.061	0.119	-0.111
0.090	40.784	0.003	0.016	-0.055	0.021	0.836	0.521	0.924	1.234	1.850	1.770	-0.052	0.119	-0.112
0.090	40.768	0.002	0.020	-0.036	0.051	0.812	0.509	1.111	1.286	1.850	1.778	-0.045	0.119	-0.112
0.090	40.771	-0.001	0.025	-0.015	0.070	0.849	0.511	1.139	1.373	1.852	1.781	-0.039	0.117	-0.113
0.090	40.781	-0.006	0.025	0.005	0.084	0.874	0.508	1.124	1.482	1.863	1.782	-0.031	0.116	-0.114
0.091	40.781	-0.009	0.027	0.023	0.088	0.893	0.543	0.975	1.491	1.854	1.783	-0.025	0.111	-0.117
0.091	40.787	-0.010	0.029	0.038	0.087	0.897	0.582	0.866	1.448	1.853	1.774	-0.018	0.106	-0.118
0.091	40.805	-0.008	0.029	0.050	0.081	0.857	0.605	0.932	1.386	1.853	1.778	-0.012	0.100	-0.119
0.091	40.805	0.000	0.027	0.058	0.069	0.811	0.597	1.084	1.305	1.844	1.776	-0.005	0.094	-0.125
0.091	40.805	0.011	0.027	0.066	0.055	0.736	0.565	1.261	1.270	1.847	1.767	-0.001	0.085	-0.127
0.092	40.808	0.015	0.027	0.069	0.035	0.623	0.554	1.370	1.251	1.844	1.766	0.006	0.077	-0.134
0.092	40.811	0.020	0.027	0.068	0.014	0.559	0.558	1.240	1.264	1.845	1.766	0.010	0.068	-0.140
0.092	40.814	0.024	0.028	0.068	-0.009	0.502	0.582	1.011	1.328	1.848	1.766	0.013	0.058	-0.143
0.092	40.851	0.024	0.031	0.066	-0.032	0.469	0.617	0.832	1.362	1.839	1.771	0.021	0.049	-0.151
0.092	40.845	0.025	0.036	0.062	-0.053	0.487	0.643	0.736	1.360	1.833	1.764	0.022	0.039	-0.160
0.093	40.833	0.024	0.041	0.061	-0.068	0.501	0.643	0.813	1.326	1.842	1.761	0.026	0.030	-0.165
0.093	40.842	0.026	0.050	0.057	-0.079	0.501	0.632	0.993	1.240	1.832	1.769	0.032	0.021	-0.172
0.093	40.848	0.027	0.056	0.056	-0.084	0.497	0.622	1.215	1.160	1.841	1.761	0.038	0.014	-0.180
0.093	40.842	0.031	0.063	0.055	-0.078	0.471	0.607	1.414	1.173	1.836	1.764	0.041	0.007	-0.187
0.093	40.854	0.033	0.068	0.058	-0.066	0.463	0.604	1.524	1.177	1.832	1.762	0.044	0.003	-0.193
0.094	40.863	0.030	0.073	0.063	-0.048	0.460	0.656	1.472	1.192	1.836	1.763	0.051	-0.005	-0.203
0.094	40.863	0.026	0.076	0.064	-0.026	0.457	0.722	1.378	1.234	1.835	1.763	0.057	-0.010	-0.206
0.094	40.854	0.021	0.077	0.068	-0.001	0.469	0.825	1.319	1.224	1.828	1.764	0.061	-0.013	-0.209
0.094	40.863	0.013	0.075	0.073	0.029	0.473	0.909	1.335	1.216	1.830	1.758	0.067	-0.015	-0.214
0.094	40.857	0.008	0.078	0.079	0.054	0.445	0.955	1.445	1.248	1.836	1.759	0.071	-0.015	-0.218
0.095	40.872	0.002	0.077	0.082	0.077	0.393	0.959	1.571	1.280	1.825	1.758	0.076	-0.019	-0.219
0.095	40.869	0.001	0.076	0.088	0.096	0.318	0.969	1.590	1.261	1.826	1.758	0.082	-0.021	-0.220
0.095	40.863	0.002	0.074	0.093	0.112	0.267	1.006	1.476	1.228	1.828	1.745	0.086	-0.020	-0.219
0.095	40.869	0.002	0.075	0.096	0.121	0.279	1.035	1.319	1.132	1.828	1.754	0.090	-0.019	-0.222
0.095	40.894	0.000	0.077	0.099	0.124	0.361	1.081	1.234	1.043	1.828	1.761	0.094	-0.021	-0.217
0.096	40.887	-0.002	0.078	0.101	0.122	0.475	1.091	1.204	0.955	1.823	1.750	0.099	-0.018	-0.215
0.096	40.891	-0.005	0.081	0.101	0.115	0.584	1.093	1.226	0.904	1.818	1.751	0.101	-0.016	-0.216
0.096	40.903	-0.012	0.085	0.101	0.102	0.603	1.060	1.282	0.877	1.820	1.752	0.101	-0.013	-0.210
0.096	40.912	-0.016	0.091	0.100	0.082	0.523	1.009	1.345	0.849	1.819	1.744	0.105	-0.011	-0.204
0.096	40.903	-0.018	0.096	0.097	0.060	0.371	0.951	1.366	0.845	1.817	1.741	0.107	-0.010	-0.202
0.097	40.897	-0.017	0.103	0.095	0.036	0.230	0.921	1.338	0.813	1.812	1.747	0.107	-0.006	-0.199
0.097	40.894	-0.017	0.108	0.095	0.010	0.162	0.908	1.331	0.869	1.819	1.750	0.108	-0.004	-0.195
0.097	40.894	-0.014	0.113	0.097	-0.019	0.209	0.900	1.323	0.892	1.818	1.751	0.107	0.001	-0.193
0.097	40.918	-0.011	0.119	0.094	-0.047	0.337	0.876	1.312	0.919	1.820	1.747	0.104	0.009	-0.189
0.097	40.921	-0.010	0.124	0.095	-0.073	0.493	0.821	1.346	0.899	1.816	1.742	0.106	0.010	-0.186
0.098	40.909	-0.007	0.128	0.093	-0.097	0.610	0.741	1.403	0.876	1.816	1.745	0.104	0.014	-0.181
0.098	40.927	-0.008	0.130	0.091	-0.112	0.616	0.669	1.520	0.878	1.811	1.741	0.100	0.022	-0.179
0.098	40.903	-0.010	0.135	0.089	-0.126	0.502	0.632	1.591	0.890	1.807	1.746	0.099	0.024	-0.177
0.098	40.906	-0.009	0.131	0.084	-0.134	0.375	0.637	1.576	0.885	1.815	1.746	0.100	0.034	-0.172
0.098	40.912	-0.012	0.132	0.078	-0.134	0.278	0.665	1.437	0.893	1.813	1.747	0.095	0.045	-0.174
0.099	40.909	-0.014	0.131	0.072	-0.127	0.279	0.704	1.320	0.874	1.813	1.741	0.090	0.050	-0.173
0.099	40.906	-0.013	0.129	0.063	-0.115	0.396	0.688	1.269	0.881	1.826	1.737	0.089	0.057	-0.169
0.099	40.906	-0.010	0.128	0.053	-0.095	0.538	0.654	1.323	0.888	1.814	1.741	0.085	0.066	-0.166
0.099	40.900	-0.009	0.125	0.042	-0.069	0.643	0.565	1.389	0.919	1.813	1.742	0.080	0.076	-0.166
0.099	40.903	-0.008	0.121	0.031	-0.043	0.682	0.528	1.396	0.886	1.818	1.742	0.077	0.084	-0.163
0.100	40.900	-0.006	0.120	0.018	-0.014	0.659	0.482	1.384	0.854	1.806	1.741	0.072	0.093	-0.163
0.100	40.894	-0.005	0.118	0.002	0.018	0.665	0.522	1.332	0.866	1.811	1.737	0.067	0.101	-0.163
0.100	40.909	-0.005	0.115	-0.015	0.049	0.678	0.540	1.263	0.905	1.799	1.740	0.063	0.111	-0.165
0.100	40.894	-0.004	0.113	-0.035	0.084	0.725	0.545	1.198	0.987	1.804	1.741	0.057	0.116	-0.163
0.100	40.900	-0.001	0.111	-0.057	0.113	0.783	0.486	1.153	1.010	1.802	1.735	0.054	0.123	-0.160
0.101	40.884	-0.002	0.109	-0.079	0.138	0.820	0.401	1.148	1.026	1.808	1.740	0.049	0.129	-0.164
0.101	40.887	-0.000	0.107	-0.105	0.162	0.799	0.302	1.202	1.029	1.810	1.733	0.043	0.138	-0.166
0.101	40.894	0.001	0.108	-0.129	0.180	0.740	0.242	1.346	1.029	1.806	1.733	0.037	0.144	-0.167
0.101	40.903	0.003	0.107	-0.150	0.192	0.682	0.230	1.441	1.009	1.807	1.731	0.035	0.150	-0.169
0.101	40.918	0.010	0.109	-0.172	0.199	0.671	0.255	1.394	0.993	1.801	1.738	0.029	0.154	-0.171
0.102	40.918	0.015	0.108	-0.188	0.197	0.729	0.266	1.300	1.015	1.806	1.727	0.019	0.158	-0.174
0.102	40.915	0.022	0.108	-0.204	0.191	0.833	0.278	1.154	1.037	1.804	1.733	0.017	0.161	-0.177
0.102	40.936	0.030	0.110	-0.214	0.172	0.926	0.292	1.055	1.034	1.797	1.735	0.013	0.164	-0.182
0.102	40.930	0.037	0.111	-0.222	0.148	0.966	0.278	1.039	0.979	1.810	1.734	0.008	0.167	-0.185
0.102	40.924	0.040	0.111	-0.225	0.117	0.899	0.247	1.103	0.880	1.804	1.737	0.004	0.168	-0.188
0.103	40.924	0.047	0.112	-0.227	0.083	0.829	0.216	1.187	0.775	1.799	1.734	-0.000	0.170	-0.192
0.103	40.924	0.048	0.112	-0.225	0.043	0.744	0.225	1.298	0.717	1.801	1.732	-0.004	0.171	-0.198
0.103	40.912	0.052	0.111	-0.219	0.001	0.722	0.268	1.332	0.684	1.791	1.736	-0.007	0.170	-0.199
0.103	40.930	0.054	0.110	-0.210	-0.040	0.743	0.294	1.308	0.749	1.805	1.732	-0.010	0.171	-0.204
0.103	40.921	0.057	0.108	-0.200	-0.082	0.822	0.327	1.253	0.827	1.802	1.738	-0.014	0.171	-0.209
0.104	40.918	0.060	0.103	-0.187	-0.120	0.893	0.331	1.201	0.885	1.801	1.733	-0.017	0.170	-0.210
0.104	40.924	0.063	0.099	-0.176	-0.162	0.894	0.293	1.200	0.881	1.804	1.731	-0.019	0.169	-0.212
0.104	40.909	0.069	0.098	-0.163	-0.196	0.865	0.259	1.251	0.872	1.798	1.728	-0.020	0.167	-0.216
0.104	40.891	0.070	0.096	-0.155	-0.227	0.777	0.243	1.370	0.864	1.804	1.723	-0.023	0.166	-0.218
0.104	40.897	0.074	0.094	-0.144	-0.255	0.695	0.260	1.414	0.808	1.797	1.722	-0.027	0.165	-0.221
0.105	40.906	0.079	0.093	-0.136	-0.276	0.635	0.267	1.411	0.825	1.796	1.729	-0.026	0.163	-0.223
0.105	40.900	0.081	0.096	-0.127	-0.293	0.610	0.268	1.332	0.865	1.805	1.727	-0.027	0.160	-0.226
0.105	40.881	0.083	0.097	-0.121	-0.302	0.620	0.255	1.163	0.892	1.809	1.720	-0.029	0.157	-0.225
0.105	40.900	0.081	0.096	-0.118	-0.305	0.622	0.246	1.111	0.913	1.804	1.733	-0.030	0.156	-0.225
0.105	40.881	0.079	0.100	-0.114	-0.303	0.628	0.238	1.138	0.901	1.800	1.732	-0.032	0.152	-0.224
0.106	40.891	0.077	0.101	-0.109	-0.297	0.609	0.246	1.256	0.878	1.805	1.725	-0.032	0.152	-0.224
0.106	40.894	0.076	0.101	-0.106	-0.289	0.554	0.272	1.395	0.851	1.807	1.729	-0.035	0.146	-0.221
0.106	40.900	0.078	0.103	-0.102	-0.276	0.521	0.259	1.487	0.835	1.804	1.722	-0.035	0.143	-0.219
0.106	40.900	0.079	0.102	-0.099	-0.263	0.476	0.295	1.501	0.884	1.811	1.721	-0.037	0.138	-0.213
0.106	40.903	0.081	0.102	-0.096	-0.249	0.456	0.282	1.482	0.958	1.807	1.726	-0.038	0.137	-0.210
0.107	40.903	0.083	0.101	-0.095	-0.237	0.425	0.295	1.350	0.981	1.798	1.722	-0.040	0.133	-0.205
0.107	40.903	0.084	0.102	-0.091	-0.222	0.397	0.289	1.215	0.989	1.796	1.719	-0.041	0.130	-0.203
0.107	40.891	0.083	0.100	-0.093	-0.207	0.349	0.311	1.167	0.984	1.805	1.724	-0.042	0.126	-0.196
0.107	40.903	0.078	0.098	-0.094	-0.190	0.316	0.304	1.164	0.980	1.804	1.718	-0.044	0.124	-0.190
0.107	40.918	0.074	0.098	-0.098	-0.174	0.266	0.295	1.201	1.029	1.807	1.721	-0.045	0.120	-0.182
0.108	40.918	0.070	0.099	-0.102	-0.163	0.245	0.299	1.233	1.032	1.803	1.720	-0.044	0.117	-0.178
0.108	40.912	0.072	0.098	-0.109	-0.151	0.249	0.267	1.196	0.997	1.807	1.718	-0.047	0.115	-0.169
0.108	40.903	0.068	0.097	-0.117	-0.137	0.228	0.229	1.154	0.935	1.796	1.722	-0.046	0.114	-0.163
0.108	40.909	0.073	0.094	-0.128	-0.129	0.240	0.209	1.137	0.846	1.805	1.716	-0.042	0.109	-0.156
0.108	40.915	0.075	0.088	-0.140	-0.119	0.289	0.181	1.155	0.837	1.803	1.716	-0.043	0.108	-0.149
0.109	40.927	0.074	0.084	-0.153	-0.111	0.320	0.180	1.239	0.944	1.795	1.719	-0.042	0.111	-0.147
0.109	40.915	0.070	0.083	-0.167	-0.100	0.389	0.198	1.356	1.071	1.803	1.717	-0.040	0.108	-0.140
0.109	40.909	0.068	0.078	-0.183	-0.089	0.395	0.185	1.397	1.161	1.784	1.723	-0.036	0.108	-0.137
0.109	40.918	0.066	0.079	-0.197	-0.076	0.375	0.181	1.335	1.157	1.796	1.717	-0.034	0.107	-0.131
0.109	40.906	0.064	0.077	-0.211	-0.063	0.319	0.119	1.195	1.080	1.803	1.710	-0.030	0.108	-0.129
0.110	40.918	0.061	0.077	-0.224	-0.046	0.301	0.041	1.040	0.980	1.788	1.713	-0.026	0.108	-0.128
0.110	40.927	0.063	0.076	-0.233	-0.033	0.311	-0.078	0.941	0.974	1.794	1.709	-0.022	0.109	-0.126
0.110	40.927	0.064	0.076	-0.238	-0.019	0.357	-0.170	0.907	1.037	1.798	1.712	-0.016	0.109	-0.122
0.110	40.921	0.062	0.078	-0.242	-0.006	0.460	-0.229	0.930	1.122	1.795	1.708	-0.014	0.108	-0.123
0.110	40.912	0.060	0.081	-0.240	0.002	0.589	-0.264	0.971	1.200	1.793	1.705	-0.010	0.109	-0.124
0.111	40.915	0.063	0.083	-0.231	0.012	0.679	-0.275	1.059	1.203	1.796	1.701	-0.005	0.107	-0.122
0.111	40.930	0.061	0.083	-0.222	0.023	0.662	-0.265	1.092	1.180	1.794	1.704	-0.001	0.108	-0.123
0.111	40.927	0.060	0.086	-0.209	0.029	0.555	-0.238	1.041	1.086	1.788	1.706	0.003	0.104	-0.127
0.111	40.909	0.060	0.084	-0.197	0.037	0.448	-0.229	0.956	1.020	1.782	1.703	0.008	0.102	-0.124
0.111	40.921	0.059	0.085	-0.183	0.045	0.381	-0.234	0.907	1.019	1.789	1.713	0.011	0.099	-0.127
0.112	40.921	0.058	0.082	-0.168	0.051	0.412	-0.250	0.924	0.991	1.785	1.706	0.016	0.095	-0.129
0.112	40.906	0.058	0.079	-0.155	0.053	0.533	-0.280	0.978	1.066	1.785	1.703	0.016	0.094	-0.131
0.112	40.924	0.058	0.074	-0.140	0.054	0.664	-0.319	1.014	1.119	1.801	1.702	0.022	0.092	-0.135
0.112	40.933	0.059	0.068	-0.131	0.052	0.773	-0.361	1.018	1.186	1.787	1.708	0.026	0.085	-0.137
0.112	40.921	0.058	0.063	-0.126	0.045	0.826	-0.410	0.918	1.236	1.784	1.713	0.029	0.082	-0.141
0.113	40.921	0.059	0.056	-0.121	0.035	0.812	-0.448	0.831	1.212	1.788	1.702	0.033	0.077	-0.144
0.113	40.918	0.059	0.051	-0.123	0.023	0.790	-0.451	0.737	1.118	1.787	1.704	0.036	0.074	-0.148
0.113	40.927	0.057	0.047	-0.127	0.007	0.767	-0.485	0.726	1.104	1.794	1.710	0.041	0.070	-0.152
0.113	40.924	0.056	0.045	-0.134	-0.010	0.775	-0.481	0.740	1.165	1.793	1.697	0.043	0.069	-0.157
0.113	40.918	0.055	0.043	-0.145	-0.028	0.784	-0.488	0.757	1.224	1.781	1.700	0.047	0.067	-0.162
0.114	40.915	0.053	0.044	-0.159	-0.044	0.784	-0.428	0.683	1.306	1.787	1.708	0.049	0.065	-0.165
0.114	40.927	0.056	0.046	-0.175	-0.063	0.774	-0.359	0.567	1.326	1.781	1.697	0.052	0.065	-0.173
0.114	40.915	0.056	0.050	-0.192	-0.081	0.757	-0.237	0.402	1.223	1.781	1.701	0.054	0.065	-0.183
0.114	40.924	0.058	0.053	-0.213	-0.098	0.760	-0.151	0.291	1.128	1.783	1.697	0.058	0.067	-0.186
0.114	40.909	0.061	0.058	-0.230	-0.116	0.771	-0.128	0.244	1.010	1.789	1.706	0.063	0.067	-0.189
0.115	40.918	0.063	0.061	-0.246	-0.138	0.812	-0.217	0.279	0.999	1.781	1.700	0.065	0.070	-0.195
0.115	40.915	0.066	0.064	-0.260	-0.158	0.853	-0.354	0.335	1.124	1.782	1.706	0.067	0.079	-0.203
0.115	40.930	0.066	0.067	-0.273	-0.177	0.837	-0.477	0.400	1.268	1.779	1.696	0.071	0.078	-0.208
0.115	40.912	0.067	0.072	-0.283	-0.196	0.805	-0.562	0.404	1.395	1.783	1.696	0.069	0.081	-0.211
0.115	40.933	0.067	0.077	-0.293	-0.212	0.753	-0.555	0.386	1.466	1.779	1.694	0.073	0.088	-0.217
0.116	40.936	0.066	0.083	-0.297	-0.221	0.708	-0.496	0.356	1.453	1.779	1.701	0.074	0.092	-0.221
0.116	40.921	0.065	0.089	-0.303	-0.229	0.701	-0.369	0.401	1.380	1.783	1.697	0.077	0.093	-0.221
0.116	40.918	0.065	0.089	-0.304	-0.229	0.744	-0.251	0.429	1.294	1.780	1.699	0.077	0.101	-0.224
0.116	40.921	0.062	0.092	-0.306	-0.228	0.798	-0.181	0.447	1.269	1.781	1.697	0.072	0.107	-0.223
0.116	40.921	0.059	0.089	-0.308	-0.224	0.843	-0.198	0.427	1.302	1.786	1.692	0.070	0.108	-0.222
0.117	40.921	0.058	0.086	-0.307	-0.217	0.852	-0.269	0.366	1.349	1.782	1.691	0.068	0.113	-0.222
0.117	40.936	0.060	0.079	-0.306	-0.207	0.775	-0.376	0.301	1.390	1.782	1.695	0.064	0.116	-0.215
0.117	40.967	0.059	0.072	-0.305	-0.197	0.692	-0.447	0.243	1.431	1.782	1.695	0.062	0.118	-0.211
0.117	40.948	0.059	0.063	-0.303	-0.186	0.603	-0.435	0.230	1.428	1.781	1.691	0.060	0.121	-0.205
0.117	40.952	0.064	0.052	-0.304	-0.176	0.566	-0.409	0.239	1.362	1.768	1.692	0.056	0.124	-0.199
0.118	40.970	0.065	0.041	-0.306	-0.168	0.565	-0.359	0.260	1.302	1.781	1.696	0.051	0.126	-0.188
0.118	40.964	0.063	0.031	-0.311	-0.161	0.605	-0.307	0.250	1.266	1.795	1.695	0.048	0.124	-0.181
0.118	40.970	0.059	0.020	-0.318	-0.156	0.672	-0.320	0.237	1.311	1.778	1.695	0.042	0.127	-0.174
0.118	40.973	0.052	0.012	-0.327	-0.152	0.672	-0.326	0.235	1.413	1.778	1.692	0.043	0.129	-0.164
0.118	40.979	0.049	0.006	-0.340	-0.151	0.647	-0.330	0.215	1.500	1.784	1.689	0.035	0.122	-0.153
0.119	40.982	0.044	-0.002	-0.353	-0.155	0.583	-0.331	0.196	1.590	1.768	1.691	0.032	0.129	-0.146
0.119	40.985	0.039	-0.001	-0.367	-0.166	0.507	-0.280	0.217	1.589	1.779	1.686	0.027	0.128	-0.138
0.119	40.988	0.037	-0.008	-0.379	-0.174	0.473	-0.251	0.254	1.581	1.782	1.686	0.023	0.131	-0.128
0.119	40.997	0.037	-0.006	-0.390	-0.188	0.457	-0.230	0.293	1.525	1.779	1.687	0.022	0.127	-0.120
0.119	40.988	0.038	-0.010	-0.401	-0.208	0.481	-0.235	0.293	1.527	1.781	1.686	0.017	0.128	-0.112
0.120	41.006	0.041	-0.007	-0.408	-0.230	0.518	-0.267	0.263	1.580	1.780	1.688	0.015	0.130	-0.107
0.120	40.997	0.040	-0.006	-0.411	-0.253	0.518	-0.318	0.223	1.707	1.782	1.680	0.011	0.127	-0.100
0.120	41.006	0.039	-0.004	-0.417	-0.275	0.498	-0.335	0.199	1.821	1.778	1.685	0.010	0.127	-0.096
0.120	40.997	0.034	0.002	-0.420	-0.296	0.435	-0.305	0.192	1.950	1.774	1.678	0.005	0.125	-0.094
0.120	41.006	0.025	0.003	-0.421	-0.312	0.387	-0.247	0.239	1.969	1.780	1.680	0.005	0.124	-0.092
0.121	41.013	0.014	0.013	-0.420	-0.325	0.353	-0.160	0.298	1.868	1.778	1.680	0.004	0.122	-0.094
0.121	41.013	0.010	0.018	-0.416	-0.331	0.376	-0.137	0.302	1.730	1.784	1.680	-0.000	0.120	-0.092
0.121	40.997	-0.001	0.023	-0.412	-0.330	0.392	-0.128	0.232	1.634	1.772	1.677	-0.001	0.119	-0.096
0.121	40.997	-0.003	0.027	-0.407	-0.321	0.416	-0.177	0.104	1.636	1.774	1.677	-0.004	0.116	-0.100
0.121	41.010	-0.005	0.031	-0.402	-0.308	0.422	-0.196	-0.041	1.738	1.773	1.678	-0.007	0.111	-0.102
0.122	40.979	-0.004	0.034	-0.397	-0.288	0.432	-0.203	-0.098	1.854	1.774	1.681	-0.010	0.108	-0.112
0.122	41.003	-0.004	0.035	-0.391	-0.266	0.440	-0.157	-0.056	1.884	1.776	1.684	-0.013	0.103	-0.118
0.122	41.010	-0.006	0.038	-0.387	-0.241	0.492	-0.171	0.070	1.827	1.771	1.678	-0.016	0.099	-0.122
0.122	41.006	-0.008	0.041	-0.381	-0.214	0.554	-0.183	0.196	1.673	1.771	1.680	-0.018	0.092	-0.131
0.122	41.025	-0.012	0.042	-0.379	-0.187	0.623	-0.256	0.255	1.591	1.773	1.676	-0.024	0.087	-0.138
0.123	41.034	-0.017	0.043	-0.376	-0.160	0.671	-0.329	0.215	1.629	1.772	1.677	-0.026	0.079	-0.147
0.123	41.000	-0.022	0.041	-0.374	-0.135	0.684	-0.402	0.093	1.769	1.774	1.672	-0.033	0.069	-0.154
0.123	41.013	-0.025	0.038	-0.372	-0.109	0.688	-0.415	-0.014	1.972	1.782	1.677	-0.036	0.065	-0.161
0.123	41.025	-0.029	0.035	-0.370	-0.089	0.650	-0.384	-0.076	2.110	1.778	1.673	-0.040	0.055	-0.170
0.123	41.000	-0.030	0.029	-0.369	-0.070	0.648	-0.331	-0.092	2.092	1.783	1.665	-0.043	0.048	-0.173
0.124	41.019	-0.027	0.025	-0.369	-0.056	0.631	-0.258	-0.116	1.948	1.774	1.678	-0.049	0.039	-0.182
0.124	41.006	-0.022	0.020	-0.373	-0.045	0.691	-0.228	-0.143	1.781	1.778	1.671	-0.052	0.032	-0.185
0.124	40.997	-0.017	0.015	-0.375	-0.040	0.767	-0.243	-0.178	1.620	1.777	1.678	-0.057	0.021	-0.189
0.124	41.022	-0.012	0.011	-0.379	-0.038	0.860	-0.292	-0.244	1.537	1.772	1.671	-0.060	0.013	-0.192
0.124	40.982	-0.006	0.008	-0.383	-0.039	0.906	-0.323	-0.304	1.595	1.769	1.672	-0.064	0.003	-0.196
0.125	41.003	-0.005	0.001	-0.389	-0.043	0.925	-0.276	-0.314	1.717	1.789	1.670	-0.064	-0.007	-0.198
0.125	40.994	-0.005	-0.002	-0.393	-0.048	0.932	-0.182	-0.312	1.832	1.782	1.666	-0.068	-0.014	-0.199
0.125	40.988	-0.006	-0.006	-0.399	-0.052	0.922	-0.083	-0.241	1.912	1.780	1.673	-0.069	-0.019	-0.199
0.125	40.994	-0.002	-0.011	-0.404	-0.058	0.916	0.019	-0.173	1.905	1.777	1.673	-0.070	-0.027	-0.199
0.125	40.991	-0.000	-0.017	-0.408	-0.059	0.923	0.072	-0.120	1.845	1.778	1.664	-0.072	-0.033	-0.201
0.126	40.991	0.001	-0.025	-0.415	-0.059	0.974	0.088	-0.092	1.803	1.764	1.664	-0.076	-0.038	-0.201
0.126	40.979	0.007	-0.033	-0.419	-0.057	1.041	0.070	-0.128	1.744	1.781	1.672	-0.077	-0.043	-0.199
0.126	40.982	0.013	-0.040	-0.422	-0.052	1.087	0.061	-0.181	1.741	1.787	1.673	-0.080	-0.047	-0.198
0.126	40.985	0.017	-0.045	-0.427	-0.048	1.087	0.110	-0.194	1.754	1.775	1.677	-0.081	-0.051	-0.202
0.126	40.970	0.021	-0.049	-0.431	-0.041	1.078	0.196	-0.191	1.783	1.773	1.674	-0.081	-0.054	-0.199
0.127	40.961	0.022	-0.053	-0.430	-0.032	1.060	0.306	-0.168	1.840	1.779	1.669	-0.082	-0.057	-0.201
0.127	40.958	0.019	-0.052	-0.427	-0.024	1.064	0.374	-0.132	1.853	1.780	1.673	-0.081	-0.057	-0.200
0.127	40.964	0.017	-0.051	-0.423	-0.016	1.083	0.398	-0.089	1.845	1.775	1.668	-0.084	-0.057	-0.202
0.127	40.958	0.016	-0.046	-0.417	-0.009	1.152	0.395	-0.122	1.858	1.774	1.667	-0.085	-0.053	-0.205
0.127	40.945	0.015	-0.043	-0.407	-0.002	1.231	0.415	-0.252	1.890	1.779	1.669	-0.086	-0.055	-0.206
0.128	40.955	0.016	-0.042	-0.398	0.005	1.287	0.400	-0.361	1.913	1.774	1.667	-0.089	-0.052	-0.207
0.128	40.970	0.017	-0.039	-0.386	0.007	1.320	0.452	-0.433	1.983	1.768	1.666	-0.089	-0.049	-0.209
0.128	40.955	0.020	-0.041	-0.372	0.009	1.314	0.525	-0.404	2.022	1.768	1.668	-0.091	-0.048	-0.210
0.128	40.942	0.020	-0.040	-0.357	0.010	1.271	0.591	-0.376	1.976	1.770	1.670	-0.096	-0.040	-0.212
0.128	40.952	0.019	-0.039	-0.342	0.009	1.196	0.664	-0.313	1.827	1.770	1.662	-0.095	-0.037	-0.212
0.129	40.948	0.025	-0.041	-0.327	0.006	1.165	0.689	-0.232	1.688	1.770	1.670	-0.100	-0.034	-0.207
0.129	40.964	0.020	-0.044	-0.312	0.001	1.113	0.735	-0.198	1.608	1.769	1.673	-0.100	-0.026	-0.212
0.129	40.939	0.024	-0.047	-0.297	-0.006	1.155	0.800	-0.219	1.632	1.772	1.670	-0.105	-0.023	-0.211
0.129	40.942	0.020	-0.052	-0.284	-0.015	1.175	0.858	-0.243	1.725	1.770	1.665	-0.106	-0.016	-0.207
0.129	40.945	0.020	-0.056	-0.274	-0.025	1.276	0.925	-0.286	1.867	1.771	1.664	-0.110	-0.009	-0.202
0.130	40.952	0.019	-0.061	-0.266	-0.037	1.306	1.002	-0.204	1.992	1.768	1.666	-0.113	-0.002	-0.203
0.130	40.945	0.017	-0.068	-0.262	-0.050	1.350	1.030	-0.037	1.935	1.776	1.664	-0.116	0.004	-0.199
0.130	40.945	0.013	-0.074	-0.264	-0.064	1.350	1.020	0.190	1.772	1.774	1.664	-0.119	0.012	-0.196
0.130	40.976	0.008	-0.084	-0.270	-0.080	1.355	0.956	0.367	1.605	1.763	1.670	-0.122	0.019	-0.191
0.130	40.933	0.003	-0.092	-0.279	-0.094	1.359	0.890	0.377	1.498	1.761	1.668	-0.124	0.026	-0.186
0.131	40.955	-0.004	-0.103	-0.292	-0.106	1.338	0.850	0.238	1.534	1.764	1.660	-0.128	0.034	-0.179
0.131	40.952	-0.007	-0.113	-0.309	-0.122	1.329	0.863	0.036	1.647	1.774	1.659	-0.130	0.041	-0.175
0.131	40.930	-0.009	-0.122	-0.327	-0.134	1.305	0.918	-0.146	1.829	1.773	1.666	-0.133	0.048	-0.169
0.131	40.955	-0.009	-0.130	-0.349	-0.145	1.257	0.989	-0.197	1.869	1.775	1.667	-0.132	0.061	-0.164
0.131	40.948	-0.007	-0.135	-0.368	-0.156	1.240	1.070	-0.126	1.811	1.768	1.669	-0.135	0.067	-0.159
0.132	40.945	-0.005	-0.140	-0.387	-0.165	1.233	1.116	0.069	1.735	1.770	1.673	-0.138	0.074	-0.150
0.132	40.942	-0.005	-0.142	-0.405	-0.175	1.246	1.127	0.203	1.666	1.767	1.670	-0.135	0.081	-0.146
0.132	40.927	-0.004	-0.140	-0.421	-0.180	1.257	1.116	0.117	1.640	1.765	1.660	-0.137	0.089	-0.138
0.132	40.942	-0.007	-0.137	-0.436	-0.183	1.247	1.082	-0.032	1.714	1.758	1.661	-0.137	0.097	-0.135
0.132	40.952	-0.013	-0.134	-0.447	-0.184	1.231	1.095	-0.134	1.833	1.764	1.661	-0.135	0.103	-0.130
0.133	40.942	-0.017	-0.129	-0.458	-0.179	1.217	1.151	-0.160	1.968	1.771	1.657	-0.134	0.110	-0.123
0.133	40.930	-0.019	-0.125	-0.467	-0.171	1.180	1.219	-0.060	2.011	1.770	1.658	-0.134	0.118	-0.117
0.133	40.952	-0.023	-0.118	-0.472	-0.158	1.143	1.263	0.053	1.976	1.765	1.666	-0.132	0.123	-0.114
0.133	40.936	-0.025	-0.113	-0.474	-0.142	1.098	1.274	0.178	1.904	1.767	1.663	-0.131	0.129	-0.109
0.133	40.927	-0.019	-0.109	-0.474	-0.121	1.070	1.258	0.189	1.804	1.773	1.661	-0.130	0.135	-0.102
0.134	40.936	-0.018	-0.104	-0.473	-0.099	1.032	1.248	0.107	1.733	1.770	1.659	-0.128	0.138	-0.097
0.134	40.921	-0.015	-0.099	-0.469	-0.079	1.019	1.284	-0.014	1.743	1.763	1.664	-0.127	0.139	-0.095
0.134	40.915	-0.014	-0.099	-0.466	-0.063	0.996	1.330	-0.094	1.787	1.762	1.660	-0.125	0.147	-0.090
0.134	40.900	-0.015	-0.097	-0.460	-0.046	0.969	1.409	-0.040	1.858	1.759	1.659	-0.124	0.149	-0.087
0.134	40.906	-0.019	-0.096	-0.458	-0.034	0.973	1.498	0.090	1.831	1.772	1.665	-0.122	0.150	-0.085
0.135	40.891	-0.022	-0.096	-0.457	-0.024	1.016	1.555	0.204	1.772	1.769	1.663	-0.121	0.153	-0.081
0.135	40.903	-0.026	-0.094	-0.457	-0.020	1.088	1.581	0.301	1.712	1.761	1.662	-0.123	0.157	-0.080
0.135	40.881	-0.025	-0.096	-0.459	-0.016	1.149	1.575	0.304	1.639	1.770	1.663	-0.125	0.156	-0.079
0.135	40.887	-0.022	-0.095	-0.459	-0.017	1.179	1.577	0.230	1.629	1.760	1.665	-0.123	0.155	-0.079
0.135	40.884	-0.017	-0.094	-0.466	-0.022	1.181	1.599	0.097	1.693	1.759	1.660	-0.123	0.154	-0.079
0.136	40.872	-0.011	-0.097	-0.470	-0.028	1.138	1.610	0.012	1.744	1.761	1.658	-0.128	0.153	-0.081
0.136	40.875	-0.006	-0.101	-0.477	-0.037	1.078	1.597	-0.031	1.806	1.761	1.655	-0.126	0.152	-0.083
0.136	40.875	0.000	-0.103	-0.485	-0.049	1.023	1.627	-0.032	1.809	1.763	1.660	-0.127	0.150	-0.084
0.136	40.878	0.002	-0.105	-0.493	-0.064	0.984	1.624	0.029	1.765	1.765	1.665	-0.129	0.146	-0.086
0.136	40.878	0.001	-0.106	-0.499	-0.081	0.981	1.617	0.046	1.717	1.765	1.667	-0.128	0.145	-0.094
0.137	40.875	0.000	-0.106	-0.506	-0.101	0.991	1.620	0.035	1.656	1.763	1.662	-0.129	0.142	-0.100
0.137	40.878	0.000	-0.107	-0.512	-0.119	1.052	1.621	-0.032	1.588	1.765	1.660	-0.131	0.137	-0.104
0.137	40.881	0.001	-0.107	-0.517	-0.136	1.084	1.639	-0.089	1.598	1.758	1.655	-0.132	0.132	-0.112
0.137	40.887	0.002	-0.107	-0.521	-0.146	1.089	1.642	-0.072	1.638	1.756	1.661	-0.133	0.128	-0.115
0.137	40.872	0.002	-0.103	-0.522	-0.152	1.101	1.641	0.017	1.687	1.758	1.661	-0.133	0.120	-0.122
0.138	40.857	0.002	-0.104	-0.523	-0.154	1.125	1.647	0.146	1.753	1.757	1.656	-0.135	0.114	-0.128
0.138	40.866	-0.004	-0.104	-0.516	-0.148	1.153	1.629	0.263	1.759	1.756	1.665	-0.137	0.109	-0.139
0.138	40.887	-0.010	-0.104	-0.510	-0.145	1.175	1.623	0.355	1.710	1.761	1.663	-0.136	0.100	-0.148
0.138	40.891	-0.017	-0.106	-0.503	-0.136	1.204	1.648	0.404	1.608	1.762	1.665	-0.140	0.091	-0.153
0.138	40.866	-0.027	-0.108	-0.491	-0.125	1.172	1.673	0.466	1.553	1.766	1.661	-0.141	0.087	-0.163
0.139	40.863	-0.033	-0.107	-0.479	-0.121	1.154	1.697	0.516	1.503	1.773	1.664	-0.138	0.076	-0.171
0.139	40.872	-0.036	-0.111	-0.461	-0.115	1.183	1.709	0.519	1.557	1.762	1.662	-0.140	0.066	-0.177
0.139	40.878	-0.041	-0.112	-0.445	-0.116	1.204	1.702	0.461	1.611	1.768	1.662	-0.141	0.057	-0.187
0.139	40.891	-0.039	-0.113	-0.429	-0.121	1.277	1.713	0.375	1.656	1.762	1.667	-0.142	0.049	-0.195
0.139	40.887	-0.044	-0.114	-0.411	-0.127	1.325	1.712	0.318	1.612	1.766	1.659	-0.143	0.039	-0.203
0.140	40.884	-0.049	-0.113	-0.393	-0.139	1.381	1.734	0.247	1.541	1.753	1.668	-0.143	0.031	-0.212
0.140	40.881	-0.054	-0.109	-0.377	-0.152	1.419	1.747	0.219	1.469	1.766	1.661	-0.143	0.019	-0.217
0.140	40.881	-0.065	-0.108	-0.360	-0.166	1.432	1.717	0.182	1.429	1.762	1.661	-0.143	0.009	-0.225
0.140	40.869	-0.072	-0.106	-0.345	-0.185	1.414	1.665	0.143	1.455	1.758	1.656	-0.143	0.000	-0.231
0.140	40.887	-0.080	-0.100	-0.326	-0.205	1.380	1.595	0.101	1.544	1.758	1.658	-0.141	-0.010	-0.236
0.141	40.881	-0.087	-0.098	-0.311	-0.226	1.349	1.542	0.066	1.625	1.757	1.665	-0.142	-0.020	-0.242
0.141	40.887	-0.094	-0.094	-0.293	-0.246	1.356	1.531	0.074	1.746	1.758	1.658	-0.141	-0.027	-0.251
0.141	40.875	-0.097	-0.091	-0.276	-0.269	1.367	1.549	0.106	1.774	1.760	1.660	-0.137	-0.035	-0.256
0.141	40.891	-0.100	-0.088	-0.259	-0.291	1.383	1.572	0.112	1.748	1.759	1.659	-0.134	-0.043	-0.260
0.141	40.891	-0.105	-0.082	-0.241	-0.308	1.361	1.569	0.184	1.688	1.755	1.656	-0.130	-0.048	-0.269
0.142	40.875	-0.113	-0.075	-0.228	-0.324	1.371	1.516	0.263	1.587	1.754	1.659	-0.126	-0.052	-0.271
0.142	40.872	-0.122	-0.074	-0.215	-0.335	1.341	1.419	0.300	1.508	1.769	1.658	-0.121	-0.058	-0.276
0.142	40.875	-0.130	-0.069	-0.203	-0.341	1.326	1.343	0.302	1.504	1.766	1.663	-0.117	-0.064	-0.281
0.142	40.869	-0.139	-0.068	-0.194	-0.343	1.292	1.283	0.296	1.561	1.759	1.668	-0.112	-0.066	-0.284
0.142	40.866	-0.146	-0.065	-0.186	-0.339	1.282	1.251	0.260	1.617	1.754	1.669	-0.106	-0.066	-0.286
0.143	40.851	-0.153	-0.065	-0.176	-0.331	1.266	1.263	0.268	1.632	1.758	1.659	-0.099	-0.071	-0.288
0.143	40.872	-0.156	-0.067	-0.168	-0.315	1.253	1.248	0.298	1.616	1.754	1.663	-0.094	-0.073	-0.290
0.143	40.875	-0.162	-0.068	-0.161	-0.298	1.260	1.232	0.306	1.592	1.763	1.664	-0.088	-0.075	-0.292
0.143	40.866	-0.167	-0.071	-0.154	-0.275	1.286	1.178	0.293	1.577	1.759	1.658	-0.082	-0.075	-0.295
0.143	40.863	-0.174	-0.072	-0.147	-0.248	1.324	1.138	0.278	1.574	1.752	1.665	-0.074	-0.078	-0.296
0.144	40.866	-0.178	-0.076	-0.145	-0.219	1.326	1.093	0.268	1.599	1.761	1.663	-0.067	-0.081	-0.294
0.144	40.872	-0.181	-0.076	-0.143	-0.189	1.318	1.103	0.277	1.604	1.756	1.664	-0.061	-0.079	-0.293
0.144	40.854	-0.187	-0.077	-0.141	-0.159	1.272	1.113	0.280	1.553	1.757	1.671	-0.054	-0.081	-0.294
0.144	40.869	-0.190	-0.079	-0.143	-0.128	1.233	1.128	0.314	1.526	1.760	1.665	-0.049	-0.083	-0.294
0.144	40.878	-0.192	-0.078	-0.147	-0.098	1.222	1.105	0.377	1.487	1.764	1.660	-0.045	-0.085	-0.291
0.145	40.869	-0.195	-0.077	-0.148	-0.071	1.172	1.006	0.427	1.513	1.778	1.667	-0.041	-0.088	-0.288
0.145	40.875	-0.201	-0.074	-0.150	-0.043	1.145	0.860	0.459	1.599	1.766	1.667	-0.033	-0.089	-0.289
0.145	40.869	-0.204	-0.072	-0.152	-0.016	1.132	0.744	0.496	1.650	1.762	1.671	-0.029	-0.091	-0.285
0.145	40.869	-0.209	-0.071	-0.151	0.002	1.116	0.693	0.550	1.705	1.764	1.666	-0.024	-0.097	-0.280
0.145	40.875	-0.211	-0.069	-0.152	0.018	1.112	0.734	0.586	1.729	1.764	1.665	-0.017	-0.098	-0.281
0.146	40.884	-0.211	-0.063	-0.151	0.029	1.111	0.807	0.582	1.628	1.759	1.659	-0.014	-0.100	-0.281
0.146	40.866	-0.206	-0.064	-0.148	0.036	1.096	0.887	0.551	1.573	1.768	1.668	-0.009	-0.103	-0.275
0.146	40.891	-0.201	-0.059	-0.144	0.039	1.075	0.932	0.533	1.516	1.762	1.663	-0.006	-0.102	-0.273
0.146	40.869	-0.192	-0.056	-0.139	0.037	1.021	0.916	0.495	1.459	1.761	1.659	-0.003	-0.102	-0.269
0.146	40.881	-0.187	-0.049	-0.132	0.031	0.963	0.864	0.493	1.416	1.761	1.665	0.000	-0.103	-0.268
0.147	40.875	-0.183	-0.044	-0.127	0.023	0.909	0.800	0.481	1.392	1.764	1.663	0.007	-0.105	-0.267
0.147	40.881	-0.180	-0.040	-0.119	0.008	0.918	0.774	0.519	1.375	1.765	1.658	0.009	-0.105	-0.264
0.147	40.875	-0.178	-0.035	-0.115	-0.006	0.926	0.797	0.558	1.380	1.767	1.664	0.014	-0.105	-0.263
0.147	40.863	-0.180	-0.033	-0.104	-0.022	0.973	0.863	0.603	1.409	1.768	1.662	0.022	-0.103	-0.261
0.147	40.866	-0.181	-0.033	-0.097	-0.039	1.014	0.932	0.634	1.406	1.761	1.655	0.024	-0.101	-0.260
0.148	40.875	-0.182	-0.030	-0.087	-0.053	1.058	0.944	0.683	1.407	1.761	1.674	0.028	-0.096	-0.260
0.148	40.860	-0.179	-0.029	-0.080	-0.067	1.086	0.960	0.694	1.367	1.760	1.667	0.033	-0.093	-0.258
0.148	40.857	-0.174	-0.027	-0.074	-0.080	1.074	0.874	0.739	1.332	1.759	1.661	0.035	-0.086	-0.256
0.148	40.903	-0.172	-0.024	-0.068	-0.091	1.045	0.848	0.774	1.278	1.759	1.665	0.043	-0.082	-0.258
0.148	40.869	-0.167	-0.021	-0.063	-0.101	1.040	0.824	0.766	1.245	1.768	1.664	0.044	-0.074	-0.258
0.149	40.869	-0.164	-0.018	-0.060	-0.108	1.005	0.827	0.674	1.245	1.769	1.664	0.050	-0.066	-0.257
0.149	40.854	-0.160	-0.013	-0.054	-0.110	0.986	0.824	0.541	1.278	1.763	1.669	0.052	-0.062	-0.256
0.149	40.887	-0.159	-0.009	-0.050	-0.108	0.954	0.773	0.454	1.381	1.760	1.658	0.054	-0.051	-0.259
0.149	40.872	-0.158	-0.001	-0.044	-0.107	0.942	0.715	0.390	1.420	1.778	1.659	0.059	-0.044	-0.258
0.149	40.884	-0.160	0.006	-0.038	-0.103	0.994	0.646	0.413	1.390	1.767	1.665	0.062	-0.035	-0.258
0.150	40.897	-0.160	0.013	-0.030	-0.100	1.079	0.606	0.514	1.294	1.763	1.661	0.066	-0.027	-0.258
0.150	40.891	-0.161	0.019	-0.023	-0.096	1.151	0.604	0.627	1.181	1.765	1.661	0.065	-0.017	-0.258
0.150	40.903	-0.161	0.023	-0.012	-0.095	1.202	0.632	0.706	1.072	1.765	1.663	0.065	-0.005	-0.262
0.150	40.912	-0.157	0.026	0.001	-0.097	1.186	0.665	0.677	1.074	1.766	1.665	0.066	0.003	-0.262
0.150	40.921	-0.153	0.028	0.013	-0.104	1.171	0.669	0.631	1.126	1.763	1.664	0.068	0.012	-0.264
0.151	40.930	-0.145	0.026	0.022	-0.118	1.174	0.630	0.607	1.220	1.761	1.664	0.066	0.021	-0.266
0.151	40.921	-0.140	0.023	0.035	-0.135	1.205	0.569	0.594	1.298	1.765	1.664	0.066	0.030	-0.267
0.151	40.939	-0.138	0.024	0.046	-0.157	1.239	0.509	0.585	1.302	1.762	1.666	0.067	0.039	-0.269
0.151	40.952	-0.134	0.024	0.055	-0.184	1.286	0.469	0.571	1.220	1.770	1.663	0.064	0.047	-0.271
0.151	40.948	-0.131	0.021	0.063	-0.213	1.304	0.476	0.597	1.142	1.760	1.663	0.063	0.057	-0.271
0.152	40.958	-0.130	0.022	0.069	-0.244	1.274	0.530	0.607	1.071	1.764	1.660	0.060	0.066	-0.272
0.152	40.961	-0.128	0.021	0.074	-0.276	1.246	0.548	0.635	1.023	1.763	1.670	0.057	0.073	-0.273
0.152	40.958	-0.119	0.018	0.077	-0.311	1.204	0.498	0.653	0.987	1.756	1.669	0.057	0.079	-0.273
0.152	40.958	-0.112	0.016	0.078	-0.344	1.167	0.423	0.691	0.921	1.757	1.666	0.053	0.086	-0.274
0.152	40.964	-0.104	0.010	0.076	-0.371	1.181	0.329	0.751	0.904	1.758	1.661	0.049	0.094	-0.273
0.153	40.979	-0.097	0.004	0.071	-0.397	1.231	0.254	0.858	0.912	1.762	1.666	0.047	0.101	-0.275
0.153	40.973	-0.092	-0.002	0.064	-0.420	1.301	0.217	0.928	0.942	1.757	1.664	0.043	0.107	-0.273
0.153	40.958	-0.088	-0.008	0.054	-0.437	1.307	0.192	0.908	1.007	1.766	1.664	0.043	0.110	-0.275
0.153	40.973	-0.084	-0.013	0.040	-0.447	1.272	0.182	0.796	1.084	1.767	1.668	0.036	0.118	-0.275
0.153	40.976	-0.084	-0.015	0.027	-0.451	1.212	0.242	0.719	1.068	1.756	1.663	0.032	0.123	-0.274
0.154	40.970	-0.079	-0.019	0.010	-0.450	1.167	0.265	0.776	1.059	1.759	1.670	0.033	0.127	-0.273
0.154	40.991	-0.075	-0.019	-0.004	-0.438	1.193	0.201	0.914	1.027	1.758	1.664	0.029	0.132	-0.272
0.154	40.985	-0.071	-0.018	-0.020	-0.421	1.280	0.110	0.969	0.960	1.759	1.663	0.025	0.136	-0.271
0.154	40.991	-0.066	-0.017	-0.036	-0.399	1.397	-0.004	0.934	0.910	1.747	1.666	0.022	0.137	-0.269
0.154	41.000	-0.060	-0.014	-0.050	-0.371	1.481	-0.118	0.815	0.864	1.758	1.663	0.017	0.142	-0.267
0.155	41.000	-0.057	-0.012	-0.061	-0.341	1.467	-0.159	0.682	0.852	1.751	1.661	0.015	0.145	-0.265
0.155	40.997	-0.057	-0.009	-0.072	-0.308	1.349	-0.149	0.625	0.834	1.756	1.665	0.011	0.145	-0.263
0.155	41.010	-0.054	-0.009	-0.079	-0.274	1.222	-0.107	0.660	0.784	1.758	1.669	0.007	0.147	-0.258
0.155	40.991	-0.047	-0.010	-0.086	-0.240	1.101	-0.040	0.795	0.752	1.758	1.665	0.002	0.147	-0.255
0.155	41.000	-0.045	-0.012	-0.093	-0.204	1.059	-0.013	1.011	0.699	1.749	1.666	-0.002	0.147	-0.250
0.156	41.000	-0.036	-0.014	-0.097	-0.169	1.118	-0.034	1.168	0.632	1.750	1.664	-0.006	0.146	-0.244
0.156	40.982	-0.030	-0.018	-0.101	-0.135	1.211	-0.117	1.220	0.637	1.759	1.663	-0.012	0.144	-0.237
0.156	40.985	-0.025	-0.020	-0.105	-0.105	1.282	-0.211	1.180	0.771	1.753	1.661	-0.019	0.142	-0.238
0.156	40.961	-0.018	-0.024	-0.109	-0.078	1.290	-0.313	1.125	0.881	1.759	1.675	-0.022	0.139	-0.230
0.156	40.976	-0.013	-0.029	-0.114	-0.050	1.207	-0.348	1.115	0.965	1.755	1.665	-0.028	0.133	-0.225
0.157	40.982	-0.009	-0.033	-0.123	-0.027	1.079	-0.310	1.183	0.979	1.750	1.669	-0.032	0.130	-0.221
0.157	40.976	-0.005	-0.038	-0.131	-0.002	0.989	-0.234	1.235	0.917	1.748	1.668	-0.039	0.121	-0.215
0.157	40.967	-0.003	-0.042	-0.143	0.012	0.968	-0.191	1.276	0.839	1.752	1.664	-0.044	0.120	-0.209
0.157	40.967	0.003	-0.044	-0.154	0.024	1.015	-0.192	1.248	0.829	1.753	1.667	-0.048	0.112	-0.208
0.157	40.964	0.010	-0.049	-0.165	0.032	1.091	-0.256	1.156	0.851	1.757	1.663	-0.056	0.105	-0.205
0.158	40.955	0.018	-0.053	-0.173	0.033	1.100	-0.355	1.018	0.837	1.754	1.670	-0.062	0.099	-0.198
0.158	40.997	0.026	-0.053	-0.180	0.031	1.056	-0.386	0.859	0.793	1.747	1.671	-0.063	0.091	-0.200
0.158	40.955	0.033	-0.055	-0.192	0.024	0.977	-0.360	0.796	0.771	1.749	1.665	-0.070	0.084	-0.196
0.158	40.939	0.039	-0.058	-0.197	0.015	0.888	-0.337	0.861	0.731	1.747	1.666	-0.074	0.076	-0.198
0.158	40.973	0.046	-0.059	-0.204	-0.001	0.868	-0.287	0.951	0.675	1.759	1.673	-0.075	0.066	-0.198
0.159	40.952	0.049	-0.058	-0.208	-0.018	0.876	-0.245	0.985	0.692	1.750	1.667	-0.086	0.059	-0.200
0.159	40.964	0.050	-0.056	-0.210	-0.037	0.901	-0.283	0.963	0.815	1.752	1.663	-0.081	0.050	-0.202
0.159	40.936	0.056	-0.055	-0.208	-0.059	0.955	-0.343	0.905	0.955	1.759	1.662	-0.086	0.041	-0.203
0.159	40.939	0.055	-0.053	-0.204	-0.080	0.911	-0.396	0.854	1.093	1.763	1.662	-0.085	0.032	-0.208
0.159	40.952	0.059	-0.049	-0.200	-0.102	0.829	-0.424	0.814	1.217	1.756	1.673	-0.090	0.024	-0.216
0.160	40.955	0.061	-0.044	-0.193	-0.128	0.734	-0.402	0.836	1.216	1.754	1.679	-0.090	0.015	-0.219
0.160	40.948	0.064	-0.039	-0.186	-0.146	0.668	-0.344	0.907	1.151	1.750	1.666	-0.092	0.007	-0.224
0.160	40.964	0.063	-0.033	-0.179	-0.164	0.642	-0.265	0.990	1.058	1.752	1.664	-0.094	0.001	-0.231
0.160	40.942	0.061	-0.030	-0.172	-0.177	0.665	-0.183	0.999	0.974	1.757	1.668	-0.094	-0.008	-0.232
0.160	40.942	0.058	-0.028	-0.162	-0.190	0.694	-0.153	0.969	0.926	1.762	1.674	-0.094	-0.017	-0.237
0.161	40.961	0.054	-0.027	-0.150	-0.199	0.713	-0.171	0.898	0.981	1.765	1.676	-0.093	-0.024	-0.241
0.161	40.936	0.051	-0.031	-0.142	-0.202	0.702	-0.228	0.856	1.047	1.756	1.665	-0.094	-0.033	-0.245
0.161	40.961	0.050	-0.035	-0.130	-0.202	0.682	-0.281	0.829	1.063	1.761	1.667	-0.098	-0.039	-0.247
0.161	40.955	0.049	-0.040	-0.119	-0.198	0.666	-0.304	0.835	1.047	1.763	1.668	-0.093	-0.047	-0.249
0.161	40.967	0.050	-0.049	-0.112	-0.190	0.679	-0.336	0.898	0.998	1.755	1.672	-0.093	-0.054	-0.249
0.162	40.985	0.049	-0.058	-0.104	-0.181	0.686	-0.376	1.008	0.967	1.760	1.672	-0.092	-0.058	-0.246
0.162	40.961	0.047	-0.069	-0.098	-0.168	0.689	-0.424	1.080	0.953	1.760	1.670	-0.090	-0.065	-0.245
0.162	40.994	0.041	-0.081	-0.092	-0.154	0.702	-0.483	1.068	0.991	1.763	1.672	-0.087	-0.069	-0.241
0.162	40.967	0.032	-0.090	-0.089	-0.141	0.663	-0.495	1.013	1.086	1.761	1.674	-0.086	-0.073	-0.240
0.162	40.958	0.023	-0.100	-0.086	-0.127	0.628	-0.462	0.907	1.202	1.759	1.671	-0.085	-0.078	-0.236
0.163	40.997	0.015	-0.109	-0.087	-0.112	0.592	-0.438	0.833	1.222	1.757	1.671	-0.082	-0.079	-0.230
0.163	40.967	0.008	-0.116	-0.086	-0.100	0.577	-0.385	0.838	1.171	1.762	1.667	-0.079	-0.080	-0.223
0.163	40.970	0.006	-0.122	-0.087	-0.088	0.579	-0.354	0.885	1.056	1.755	1.673	-0.076	-0.083	-0.217
0.163	40.979	0.006	-0.126	-0.091	-0.083	0.571	-0.335	1.008	0.981	1.759	1.677	-0.071	-0.083	-0.209
0.163	40.964	0.008	-0.131	-0.094	-0.076	0.585	-0.338	1.139	0.947	1.766	1.673	-0.069	-0.083	-0.202
0.164	40.994	0.012	-0.135	-0.098	-0.075	0.575	-0.381	1.197	0.982	1.765	1.670	-0.064	-0.080	-0.194
0.164	40.973	0.013	-0.138	-0.104	-0.076	0.586	-0.446	1.205	1.071	1.765	1.669	-0.059	-0.079	-0.186
0.164	40.958	0.007	-0.140	-0.109	-0.080	0.577	-0.537	1.144	1.191	1.753	1.663	-0.054	-0.075	-0.176
0.164	40.988	-0.002	-0.139	-0.117	-0.084	0.582	-0.605	1.101	1.225	1.771	1.663	-0.050	-0.071	-0.170
0.164	40.967	-0.008	-0.142	-0.124	-0.086	0.578	-0.578	1.102	1.243	1.767	1.678	-0.044	-0.065	-0.158
0.165	40.961	-0.018	-0.140	-0.129	-0.091	0.543	-0.522	1.152	1.227	1.771	1.671	-0.039	-0.063	-0.147
0.165	40.964	-0.024	-0.138	-0.138	-0.095	0.504	-0.409	1.250	1.203	1.769	1.669	-0.033	-0.057	-0.139
0.165	40.961	-0.029	-0.137	-0.147	-0.092	0.448	-0.310	1.305	1.219	1.769	1.668	-0.030	-0.052	-0.127
0.165	40.976	-0.030	-0.135	-0.153	-0.086	0.390	-0.294	1.293	1.191	1.763	1.671	-0.026	-0.044	-0.117
0.165	40.961	-0.027	-0.135	-0.158	-0.079	0.356	-0.319	1.233	1.176	1.778	1.668	-0.019	-0.039	-0.107
0.166	40.964	-0.029	-0.135	-0.167	-0.068	0.343	-0.399	1.119	1.197	1.774	1.675	-0.014	-0.028	-0.096
0.166	40.970	-0.026	-0.133	-0.176	-0.054	0.373	-0.475	1.053	1.215	1.775	1.673	-0.012	-0.021	-0.086
0.166	40.976	-0.025	-0.134	-0.180	-0.042	0.439	-0.545	1.026	1.227	1.775	1.669	-0.007	-0.012	-0.074
0.166	40.994	-0.027	-0.133	-0.186	-0.027	0.475	-0.542	1.089	1.236	1.780	1.669	-0.003	-0.003	-0.064
0.166	40.985	-0.029	-0.131	-0.190	-0.014	0.483	-0.504	1.228	1.272	1.773	1.671	0.001	0.006	-0.052
0.167	40.973	-0.034	-0.131	-0.195	0.002	0.466	-0.446	1.334	1.311	1.777	1.666	0.003	0.015	-0.037
0.167	40.976	-0.037	-0.133	-0.202	0.014	0.435	-0.429	1.319	1.345	1.772	1.671	0.004	0.026	-0.028
0.167	40.991	-0.037	-0.136	-0.204	0.026	0.411	-0.486	1.229	1.398	1.773	1.670	0.006	0.035	-0.018
0.167	40.994	-0.036	-0.139	-0.205	0.038	0.397	-0.590	1.090	1.419	1.777	1.667	0.008	0.045	-0.005
0.167	40.991	-0.034	-0.143	-0.207	0.047	0.390	-0.692	0.991	1.393	1.768	1.673	0.007	0.054	0.003
0.168	41.010	-0.029	-0.148	-0.208	0.054	0.410	-0.735	0.954	1.369	1.771	1.667	0.006	0.064	0.012
0.168	40.991	-0.024	-0.154	-0.210	0.056	0.391	-0.749	0.949	1.338	1.770	1.673	0.006	0.074	0.023
0.168	40.997	-0.019	-0.157	-0.211	0.051	0.387	-0.659	0.930	1.362	1.773	1.673	0.006	0.084	0.027
0.168	40.985	-0.015	-0.165	-0.211	0.044	0.390	-0.567	0.951	1.479	1.771	1.672	0.002	0.093	0.036
0.168	41.006	-0.013	-0.169	-0.214	0.033	0.414	-0.524	0.937	1.612	1.784	1.676	0.001	0.102	0.041
0.169	41.022	-0.011	-0.173	-0.215	0.017	0.457	-0.501	0.914	1.661	1.774	1.681	-0.004	0.112	0.045
0.169	40.997	-0.011	-0.178	-0.215	0.003	0.446	-0.497	0.888	1.709	1.773	1.672	-0.007	0.121	0.047
0.169	41.000	-0.010	-0.179	-0.215	-0.014	0.413	-0.523	0.910	1.710	1.771	1.679	-0.010	0.126	0.048
0.169	41.010	-0.006	-0.184	-0.217	-0.025	0.365	-0.549	0.909	1.657	1.776	1.673	-0.018	0.135	0.049
0.169	41.016	-0.004	-0.189	-0.214	-0.036	0.341	-0.542	0.929	1.598	1.770	1.672	-0.020	0.143	0.046
0.170	41.025	0.002	-0.192	-0.213	-0.038	0.325	-0.514	0.949	1.528	1.771	1.672	-0.024	0.151	0.042
0.170	41.046	0.006	-0.196	-0.210	-0.040	0.378	-0.494	0.950	1.489	1.778	1.677	-0.028	0.155	0.038
0.170	41.013	0.008	-0.198	-0.206	-0.039	0.423	-0.437	0.925	1.537	1.782	1.679	-0.033	0.160	0.031
0.170	41.043	0.008	-0.198	-0.199	-0.035	0.465	-0.417	0.913	1.645	1.779	1.681	-0.038	0.164	0.024
0.170	41.040	0.006	-0.197	-0.194	-0.033	0.500	-0.361	0.899	1.730	1.770	1.677	-0.044	0.168	0.017
0.171	41.031	0.003	-0.194	-0.185	-0.027	0.512	-0.334	0.904	1.768	1.778	1.675	-0.050	0.170	0.006
0.171	41.061	-0.002	-0.191	-0.175	-0.022	0.482	-0.267	0.926	1.782	1.774	1.680	-0.054	0.172	-0.007
0.171	41.074	-0.003	-0.187	-0.166	-0.020	0.460	-0.226	0.972	1.794	1.780	1.678	-0.060	0.175	-0.015
0.171	41.040	-0.006	-0.180	-0.157	-0.014	0.424	-0.178	1.078	1.865	1.772	1.683	-0.066	0.176	-0.026
0.171	41.058	-0.006	-0.176	-0.148	-0.010	0.407	-0.148	1.136	1.894	1.775	1.680	-0.069	0.176	-0.038
0.172	41.052	-0.007	-0.173	-0.137	-0.007	0.391	-0.137	1.153	1.926	1.782	1.684	-0.076	0.174	-0.049
0.172	41.043	-0.011	-0.168	-0.124	-0.001	0.389	-0.173	1.169	1.943	1.782	1.681	-0.082	0.172	-0.059
0.172	41.064	-0.014	-0.165	-0.115	-0.002	0.397	-0.172	1.105	1.919	1.788	1.680	-0.087	0.170	-0.068
0.172	41.058	-0.018	-0.163	-0.104	0.002	0.404	-0.134	1.055	1.902	1.781	1.682	-0.092	0.168	-0.076
0.172	41.052	-0.024	-0.159	-0.093	0.000	0.367	-0.036	0.981	1.848	1.781	1.681	-0.098	0.161	-0.083
0.173	41.052	-0.030	-0.157	-0.084	-0.004	0.340	0.090	0.906	1.878	1.773	1.687	-0.101	0.159	-0.091
0.173	41.043	-0.034	-0.153	-0.076	-0.009	0.319	0.207	0.907	1.948	1.771	1.686	-0.108	0.155	-0.094
0.173	41.049	-0.039	-0.153	-0.071	-0.017	0.296	0.298	0.961	1.981	1.786	1.682	-0.114	0.147	-0.095
0.173	41.028	-0.042	-0.154	-0.065	-0.026	0.268	0.337	1.040	1.995	1.780	1.691	-0.116	0.142	-0.095
0.173	41.037	-0.042	-0.154	-0.063	-0.033	0.208	0.344	1.147	2.016	1.782	1.693	-0.122	0.134	-0.096
0.174	41.052	-0.047	-0.156	-0.066	-0.038	0.158	0.355	1.174	2.019	1.780	1.679	-0.128	0.128	-0.095
0.174	41.037	-0.054	-0.157	-0.072	-0.035	0.122	0.384	1.199	2.037	1.775	1.684	-0.131	0.120	-0.092
0.174	41.010	-0.058	-0.160	-0.082	-0.028	0.116	0.401	1.159	2.025	1.778	1.688	-0.137	0.117	-0.087
0.174	41.028	-0.065	-0.165	-0.096	-0.014	0.123	0.437	1.102	1.971	1.775	1.683	-0.139	0.107	-0.080
0.174	41.031	-0.077	-0.170	-0.114	0.004	0.130	0.462	1.059	1.864	1.793	1.685	-0.143	0.100	-0.074
0.175	41.034	-0.086	-0.177	-0.131	0.027	0.155	0.459	1.081	1.778	1.782	1.685	-0.147	0.093	-0.073
0.175	41.028	-0.091	-0.187	-0.151	0.053	0.162	0.438	1.169	1.789	1.780	1.687	-0.150	0.088	-0.065
0.175	41.037	-0.094	-0.195	-0.172	0.084	0.096	0.433	1.197	1.888	1.777	1.691	-0.152	0.080	-0.059
0.175	41.034	-0.094	-0.205	-0.191	0.114	0.025	0.415	1.157	2.069	1.784	1.690	-0.154	0.074	-0.054
0.175	41.025	-0.089	-0.211	-0.211	0.145	-0.035	0.402	1.064	2.283	1.782	1.686	-0.157	0.070	-0.049
0.176	41.022	-0.084	-0.219	-0.228	0.178	-0.065	0.404	0.971	2.374	1.785	1.689	-0.160	0.064	-0.037
0.176	41.028	-0.083	-0.221	-0.244	0.211	-0.043	0.400	0.959	2.362	1.788	1.689	-0.159	0.056	-0.031
0.176	41.025	-0.083	-0.222	-0.258	0.241	0.028	0.383	1.017	2.272	1.781	1.685	-0.161	0.051	-0.024
0.176	41.031	-0.087	-0.222	-0.264	0.272	0.125	0.393	1.081	2.109	1.784	1.689	-0.164	0.049	-0.016
0.176	41.028	-0.093	-0.217	-0.267	0.302	0.172	0.398	1.174	2.007	1.783	1.695	-0.164	0.041	-0.013
0.177	41.037	-0.099	-0.211	-0.269	0.331	0.171	0.445	1.188	2.037	1.783	1.688	-0.162	0.035	-0.006
0.177	41.040	-0.103	-0.207	-0.268	0.358	0.113	0.508	1.079	2.119	1.781	1.691	-0.162	0.029	-0.002
0.177	41.028	-0.101	-0.203	-0.261	0.383	0.041	0.572	0.909	2.182	1.781	1.683	-0.158	0.023	0.003
0.177	41.034	-0.100	-0.195	-0.249	0.405	0.012	0.618	0.753	2.213	1.774	1.691	-0.160	0.016	0.006
0.177	41.037	-0.094	-0.192	-0.234	0.421	0.040	0.585	0.690	2.196	1.785	1.687	-0.157	0.014	0.009
0.178	41.034	-0.090	-0.185	-0.213	0.429	0.132	0.578	0.704	2.158	1.784	1.690	-0.156	0.008	0.011
0.178	41.016	-0.087	-0.183	-0.190	0.432	0.244	0.584	0.743	2.190	1.795	1.692	-0.155	0.001	0.016
0.178	41.064	-0.087	-0.184	-0.164	0.430	0.257	0.584	0.785	2.278	1.791	1.692	-0.151	-0.004	0.018
0.178	41.016	-0.091	-0.182	-0.139	0.420	0.223	0.644	0.776	2.363	1.801	1.695	-0.149	-0.010	0.020
0.178	41.037	-0.095	-0.185	-0.113	0.407	0.146	0.682	0.743	2.471	1.799	1.693	-0.148	-0.015	0.027
0.179	41.055	-0.098	-0.185	-0.084	0.388	0.089	0.723	0.741	2.412	1.788	1.699	-0.142	-0.021	0.023
0.179	41.019	-0.095	-0.188	-0.056	0.366	0.104	0.749	0.693	2.301	1.799	1.692	-0.144	-0.026	0.028
0.179	41.043	-0.094	-0.188	-0.028	0.341	0.142	0.762	0.687	2.166	1.793	1.697	-0.141	-0.032	0.025
0.179	41.031	-0.086	-0.189	-0.004	0.313	0.207	0.753	0.669	2.044	1.802	1.695	-0.137	-0.038	0.031
0.179	41.013	-0.079	-0.190	0.018	0.283	0.240	0.732	0.629	2.000	1.794	1.692	-0.132	-0.043	0.035
0.180	41.028	-0.074	-0.194	0.038	0.253	0.241	0.718	0.568	2.098	1.788	1.696	-0.129	-0.047	0.033
0.180	41.013	-0.072	-0.193	0.053	0.222	0.201	0.720	0.542	2.189	1.795	1.688	-0.125	-0.051	0.035
0.180	41.006	-0.073	-0.197	0.063	0.193	0.161	0.726	0.554	2.331	1.796	1.694	-0.123	-0.055	0.037
0.180	41.034	-0.077	-0.199	0.071	0.168	0.163	0.734	0.604	2.367	1.799	1.697	-0.118	-0.057	0.036
0.180	41.013	-0.080	-0.200	0.074	0.145	0.232	0.719	0.581	2.340	1.798	1.696	-0.116	-0.056	0.035
0.181	41.019	-0.084	-0.202	0.072	0.128	0.339	0.737	0.581	2.293	1.803	1.700	-0.113	-0.059	0.036
0.181	41.025	-0.084	-0.201	0.073	0.116	0.435	0.719	0.603	2.264	1.795	1.696	-0.107	-0.059	0.036
0.181	41.006	-0.079	-0.199	0.070	0.109	0.507	0.737	0.558	2.272	1.797	1.698	-0.104	-0.059	0.035
0.181	41.010	-0.077	-0.199	0.067	0.108	0.508	0.778	0.523	2.338	1.801	1.696	-0.099	-0.057	0.033
0.181	41.010	-0.078	-0.194	0.064	0.113	0.460	0.843	0.506	2.375	1.807	1.698	-0.095	-0.054	0.029
0.182	40.988	-0.079	-0.194	0.060	0.121	0.434	0.892	0.559	2.420	1.803	1.697	-0.090	-0.055	0.026
0.182	41.000	-0.081	-0.194	0.053	0.135	0.447	0.944	0.592	2.409	1.798	1.701	-0.085	-0.052	0.025
0.182	40.994	-0.093	-0.191	0.046	0.151	0.486	0.985	0.580	2.357	1.801	1.704	-0.080	-0.047	0.018
0.182	40.988	-0.100	-0.193	0.034	0.170	0.613	0.958	0.482	2.290	1.802	1.699	-0.075	-0.043	0.012
0.182	40.988	-0.108	-0.193	0.027	0.188	0.704	0.926	0.435	2.244	1.805	1.700	-0.070	-0.037	0.007
0.183	41.016	-0.112	-0.194	0.020	0.205	0.699	0.924	0.381	2.230	1.806	1.700	-0.066	-0.028	0.002
0.183	40.997	-0.114	-0.195	0.011	0.221	0.616	0.970	0.393	2.255	1.805	1.705	-0.061	-0.020	-0.007
0.183	40.979	-0.113	-0.197	0.003	0.232	0.509	1.037	0.429	2.282	1.802	1.704	-0.057	-0.011	-0.011
0.183	40.973	-0.111	-0.199	-0.005	0.242	0.435	1.131	0.446	2.283	1.804	1.693	-0.052	-0.002	-0.016
0.183	40.985	-0.113	-0.200	-0.014	0.245	0.437	1.183	0.488	2.270	1.811	1.708	-0.046	0.007	-0.022
0.184	40.985	-0.116	-0.200	-0.019	0.244	0.521	1.200	0.518	2.254	1.808	1.706	-0.044	0.015	-0.027
0.184	40.976	-0.120	-0.199	-0.027	0.238	0.625	1.163	0.568	2.240	1.815	1.707	-0.039	0.027	-0.032
0.184	40.976	-0.126	-0.196	-0.035	0.227	0.695	1.118	0.571	2.256	1.811	1.700	-0.033	0.032	-0.035
0.184	40.982	-0.130	-0.193	-0.045	0.213	0.656	1.103	0.519	2.282	1.810	1.710	-0.027	0.043	-0.040
0.184	40.970	-0.130	-0.188	-0.054	0.196	0.495	1.114	0.481	2.298	1.813	1.706	-0.027	0.052	-0.042
0.185	40.970	-0.130	-0.182	-0.063	0.178	0.322	1.187	0.523	2.311	1.820	1.706	-0.020	0.059	-0.042
0.185	40.985	-0.127	-0.174	-0.072	0.157	0.229	1.256	0.525	2.284	1.823	1.701	-0.016	0.069	-0.041
0.185	40.976	-0.124	-0.167	-0.080	0.136	0.210	1.294	0.519	2.295	1.820	1.705	-0.011	0.074	-0.040
0.185	40.970	-0.120	-0.159	-0.084	0.114	0.293	1.284	0.490	2.307	1.818	1.709	-0.007	0.081	-0.034
0.185	40.964	-0.122	-0.151	-0.088	0.093	0.357	1.209	0.439	2.367	1.821	1.717	0.000	0.087	-0.030
0.186	40.970	-0.124	-0.143	-0.091	0.073	0.389	1.138	0.390	2.411	1.830	1.710	0.005	0.093	-0.026
0.186	41.010	-0.126	-0.136	-0.092	0.055	0.328	1.125	0.298	2.422	1.827	1.707	0.010	0.098	-0.018
0.186	40.985	-0.128	-0.132	-0.091	0.041	0.201	1.183	0.218	2.421	1.821	1.709	0.017	0.102	-0.010
0.186	40.994	-0.129	-0.125	-0.091	0.033	0.054	1.280	0.169	2.392	1.828	1.713	0.022	0.107	-0.003
0.186	40.979	-0.129	-0.124	-0.089	0.023	-0.035	1.369	0.142	2.310	1.822	1.711	0.026	0.110	0.009
0.187	40.973	-0.126	-0.120	-0.086	0.024	-0.063	1.390	0.155	2.247	1.828	1.718	0.031	0.111	0.020
0.187	40.982	-0.121	-0.119	-0.082	0.023	-0.020	1.377	0.246	2.204	1.834	1.717	0.035	0.114	0.030
0.187	41.003	-0.118	-0.117	-0.076	0.030	0.034	1.336	0.278	2.238	1.831	1.710	0.040	0.117	0.041
0.187	40.997	-0.117	-0.118	-0.070	0.036	0.093	1.314	0.271	2.274	1.834	1.716	0.045	0.115	0.051
0.187	40.985	-0.114	-0.118	-0.066	0.046	0.123	1.333	0.234	2.376	1.836	1.713	0.045	0.116	0.062
0.188	40.991	-0.117	-0.119	-0.060	0.059	0.116	1.426	0.148	2.388	1.822	1.715	0.047	0.114	0.069
0.188	40.994	-0.118	-0.114	-0.055	0.073	0.135	1.557	0.140	2.368	1.830	1.721	0.051	0.112	0.074
0.188	40.997	-0.117	-0.115	-0.048	0.088	0.166	1.640	0.185	2.290	1.834	1.725	0.051	0.109	0.084
0.188	40.994	-0.115	-0.113	-0.044	0.104	0.137	1.610	0.302	2.181	1.834	1.724	0.051	0.106	0.086
0.188	40.985	-0.111	-0.107	-0.038	0.122	0.101	1.544	0.444	2.169	1.836	1.723	0.051	0.102	0.085
0.189	40.976	-0.109	-0.107	-0.033	0.139	0.045	1.392	0.472	2.162	1.836	1.726	0.048	0.098	0.087
0.189	41.019	-0.106	-0.104	-0.026	0.154	0.032	1.309	0.381	2.183	1.841	1.732	0.047	0.090	0.086
0.189	40.970	-0.106	-0.103	-0.019	0.168	0.044	1.282	0.262	2.243	1.835	1.725	0.042	0.084	0.081
0.189	40.997	-0.105	-0.100	-0.010	0.179	0.136	1.337	0.153	2.231	1.839	1.724	0.041	0.077	0.076
0.189	40.997	-0.103	-0.097	0.001	0.184	0.254	1.433	0.156	2.187	1.839	1.730	0.035	0.069	0.070
0.190	41.006	-0.100	-0.095	0.012	0.182	0.374	1.520	0.254	2.092	1.842	1.720	0.031	0.061	0.060
0.190	40.982	-0.096	-0.093	0.022	0.178	0.451	1.562	0.364	1.990	1.828	1.731	0.026	0.053	0.047
0.190	41.013	-0.087	-0.089	0.030	0.166	0.481	1.537	0.417	1.919	1.837	1.733	0.021	0.047	0.038
0.190	41.010	-0.076	-0.084	0.039	0.151	0.431	1.484	0.381	1.878	1.842	1.728	0.014	0.036	0.027
0.190	41.049	-0.069	-0.081	0.045	0.132	0.369	1.411	0.265	1.907	1.839	1.731	0.009	0.028	0.013
0.191	41.013	-0.061	-0.073	0.050	0.109	0.322	1.390	0.140	1.964	1.838	1.735	0.004	0.021	0.002
0.191	41.022	-0.055	-0.067	0.053	0.086	0.340	1.414	0.045	1.972	1.851	1.728	-0.003	0.013	-0.006
0.191	41.022	-0.053	-0.059	0.055	0.063	0.417	1.438	0.033	1.920	1.843	1.741	-0.006	0.004	-0.022
0.191	41.016	-0.051	-0.053	0.058	0.040	0.523	1.491	0.094	1.816	1.841	1.739	-0.013	-0.002	-0.033
0.191	41.028	-0.052	-0.045	0.061	0.023	0.619	1.535	0.167	1.742	1.846	1.734	-0.020	-0.006	-0.043
0.192	41.025	-0.052	-0.037	0.067	0.007	0.656	1.531	0.257	1.729	1.846	1.734	-0.023	-0.013	-0.052
0.192	41.031	-0.050	-0.030	0.072	-0.008	0.650	1.477	0.258	1.795	1.839	1.737	-0.025	-0.021	-0.060
0.192	41.013	-0.045	-0.026	0.079	-0.019	0.608	1.393	0.174	1.892	1.837	1.736	-0.033	-0.023	-0.067
0.192	41.016	-0.040	-0.020	0.086	-0.029	0.613	1.324	0.099	1.955	1.837	1.742	-0.035	-0.025	-0.073
0.192	41.013	-0.035	-0.011	0.095	-0.035	0.656	1.290	0.108	1.941	1.848	1.739	-0.037	-0.028	-0.076
0.193	41.031	-0.027	-0.006	0.102	-0.038	0.737	1.259	0.246	1.862	1.844	1.747	-0.038	-0.025	-0.079
0.193	41.019	-0.022	0.002	0.110	-0.038	0.786	1.254	0.389	1.704	1.852	1.742	-0.041	-0.028	-0.079
0.193	41.010	-0.022	0.006	0.119	-0.033	0.785	1.265	0.462	1.639	1.856	1.742	-0.044	-0.029	-0.080
0.193	41.019	-0.024	0.014	0.126	-0.028	0.780	1.274	0.437	1.690	1.853	1.748	-0.046	-0.029	-0.079
0.193	41.019	-0.026	0.022	0.135	-0.020	0.788	1.235	0.334	1.840	1.852	1.751	-0.047	-0.028	-0.074
0.194	41.022	-0.029	0.027	0.146	-0.010	0.799	1.224	0.194	1.980	1.860	1.749	-0.046	-0.028	-0.070
0.194	41.025	-0.029	0.030	0.155	-0.000	0.858	1.223	0.086	2.071	1.852	1.748	-0.047	-0.025	-0.067
0.194	41.025	-0.026	0.035	0.166	0.010	0.949	1.234	0.117	2.071	1.853	1.756	-0.052	-0.025	-0.058
0.194	41.022	-0.020	0.038	0.179	0.014	1.011	1.265	0.218	1.929	1.862	1.751	-0.051	-0.021	-0.049
0.194	41.025	-0.012	0.039	0.189	0.022	1.032	1.272	0.362	1.796	1.854	1.749	-0.055	-0.020	-0.045
0.195	41.022	-0.007	0.040	0.197	0.023	0.961	1.277	0.436	1.663	1.854	1.757	-0.054	-0.017	-0.037
0.195	41.022	-0.001	0.040	0.203	0.024	0.900	1.269	0.408	1.690	1.860	1.754	-0.056	-0.017	-0.027
0.195	41.028	-0.001	0.041	0.210	0.025	0.840	1.240	0.281	1.698	1.860	1.755	-0.058	-0.012	-0.020
0.195	41.019	-0.002	0.044	0.209	0.026	0.858	1.229	0.141	1.726	1.858	1.756	-0.060	-0.007	-0.013
0.195	41.031	-0.007	0.047	0.207	0.030	0.924	1.240	0.110	1.708	1.863	1.759	-0.061	-0.007	-0.008
0.196	41.037	-0.011	0.049	0.201	0.035	1.009	1.241	0.160	1.668	1.858	1.751	-0.064	-0.003	-0.002
0.196	41.031	-0.010	0.052	0.192	0.042	1.055	1.269	0.278	1.576	1.853	1.758	-0.067	0.001	-0.001
0.196	41.019	-0.006	0.057	0.182	0.049	1.027	1.286	0.396	1.507	1.855	1.761	-0.068	0.009	0.005
0.196	41.025	0.001	0.057	0.170	0.058	0.955	1.304	0.466	1.482	1.860	1.762	-0.066	0.008	0.005
0.196	41.022	0.008	0.057	0.157	0.066	0.856	1.304	0.448	1.484	1.867	1.764	-0.071	0.013	0.005
0.197	41.025	0.013	0.055	0.146	0.075	0.766	1.316	0.381	1.540	1.856	1.754	-0.073	0.019	0.001
0.197	41.028	0.016	0.053	0.133	0.083	0.720	1.326	0.292	1.583	1.861	1.765	-0.075	0.024	-0.002
0.197	41.040	0.018	0.054	0.119	0.091	0.725	1.328	0.260	1.627	1.864	1.767	-0.079	0.030	-0.005
0.197	41.034	0.011	0.056	0.108	0.097	0.725	1.338	0.354	1.617	1.862	1.763	-0.074	0.036	-0.013
0.197	41.019	0.009	0.060	0.095	0.104	0.764	1.333	0.431	1.549	1.872	1.770	-0.072	0.040	-0.021
0.198	41.052	0.006	0.063	0.083	0.114	0.795	1.330	0.586	1.487	1.867	1.772	-0.077	0.045	-0.026
0.198	41.043	0.003	0.070	0.073	0.122	0.783	1.321	0.714	1.430	1.858	1.776	-0.076	0.054	-0.035
0.198	41.019	0.003	0.080	0.061	0.126	0.769	1.313	0.748	1.357	1.863	1.771	-0.075	0.059	-0.046
0.198	41.034	0.005	0.086	0.049	0.129	0.761	1.286	0.653	1.354	1.862	1.771	-0.074	0.066	-0.049
0.198	41.025	0.007	0.102	0.038	0.132	0.695	1.290	0.529	1.418	1.862	1.773	-0.073	0.067	-0.063
0.199	41.013	0.011	0.115	0.027	0.132	0.635	1.321	0.423	1.471	1.874	1.765	-0.070	0.071	-0.060
0.199	41.034	0.013	0.125	0.019	0.126	0.546	1.372	0.383	1.503	1.867	1.764	-0.068	0.076	-0.068
0.199	41.037	0.018	0.134	0.011	0.117	0.502	1.460	0.350	1.512	1.878	1.779	-0.067	0.082	-0.070
0.199	41.034	0.018	0.143	0.006	0.108	0.506	1.516	0.368	1.462	1.873	1.774	-0.065	0.082	-0.077
0.199	41.031	0.020	0.149	0.004	0.094	0.567	1.526	0.427	1.366	1.875	1.778	-0.061	0.083	-0.078
0.200	41.025	0.023	0.154	0.004	0.081	0.672	1.513	0.456	1.240	1.879	1.784	-0.060	0.083	-0.078
0.200	41.046	0.025	0.158	0.002	0.067	0.771	1.467	0.469	1.134	1.884	1.783	-0.054	0.082	-0.079
0.200	41.034	0.028	0.161	0.004	0.052	0.841	1.414	0.476	1.116	1.885	1.781	-0.050	0.081	-0.077
0.200	41.034	0.032	0.161	0.004	0.036	0.840	1.360	0.496	1.175	1.879	1.784	-0.045	0.081	-0.078
0.200	41.028	0.037	0.161	0.005	0.021	0.833	1.309	0.537	1.283	1.884	1.783	-0.041	0.080	-0.071
0.201	41.028	0.037	0.160	0.007	0.005	0.780	1.262	0.608	1.374	1.881	1.784	-0.037	0.076	-0.070
0.201	41.055	0.038	0.161	0.006	-0.010	0.779	1.266	0.692	1.402	1.880	1.782	-0.032	0.075	-0.071
0.201	41.040	0.039	0.160	0.006	-0.027	0.781	1.284	0.742	1.332	1.869	1.787	-0.030	0.074	-0.067
0.201	41.043	0.042	0.160	0.008	-0.041	0.775	1.290	0.706	1.211	1.878	1.784	-0.027	0.070	-0.062
0.201	41.049	0.046	0.161	0.006	-0.053	0.767	1.276	0.659	1.093	1.879	1.792	-0.022	0.067	-0.062
0.202	41.043	0.049	0.161	0.005	-0.066	0.757	1.226	0.598	1.044	1.881	1.789	-0.019	0.066	-0.059
0.202	41.055	0.056	0.163	0.004	-0.073	0.755	1.160	0.537	1.068	1.887	1.795	-0.014	0.062	-0.059
0.202	41.049	0.063	0.165	0.003	-0.078	0.788	1.114	0.517	1.120	1.884	1.792	-0.011	0.059	-0.059
0.202	41.049	0.068	0.166	0.002	-0.075	0.850	1.081	0.468	1.196	1.885	1.797	-0.009	0.058	-0.058
0.202	41.068	0.070	0.169	-0.000	-0.071	0.941	1.074	0.435	1.174	1.888	1.791	-0.007	0.055	-0.060
0.203	41.071	0.075	0.170	-0.004	-0.063	1.047	1.058	0.395	1.129	1.888	1.796	-0.004	0.052	-0.062
0.203	41.061	0.074	0.171	-0.006	-0.051	1.081	1.028	0.421	1.019	1.886	1.796	-0.001	0.050	-0.066
0.203	41.077	0.077	0.173	-0.009	-0.038	1.083	0.993	0.437	0.852	1.898	1.795	0.000	0.049	-0.068
0.203	41.077	0.077	0.177	-0.011	-0.022	1.021	0.956	0.535	0.793	1.887	1.795	0.003	0.047	-0.072
0.203	41.061	0.082	0.181	-0.013	-0.006	0.960	0.904	0.639	0.824	1.892	1.800	0.002	0.045	-0.071
0.204	41.068	0.083	0.185	-0.015	0.011	0.922	0.832	0.696	0.948	1.894	1.799	0.005	0.043	-0.075
0.204	41.098	0.086	0.189	-0.015	0.028	0.941	0.787	0.683	1.125	1.897	1.799	0.007	0.042	-0.078
0.204	41.083	0.086	0.193	-0.013	0.045	0.978	0.732	0.562	1.245	1.902	1.803	0.007	0.041	-0.079
0.204	41.107	0.087	0.195	-0.010	0.061	1.053	0.694	0.416	1.268	1.897	1.805	0.007	0.040	-0.079
0.204	41.080	0.085	0.197	-0.005	0.075	1.093	0.644	0.362	1.191	1.894	1.808	0.008	0.037	-0.079
0.205	41.095	0.084	0.196	0.003	0.088	1.099	0.587	0.377	0.995	1.892	1.800	0.008	0.035	-0.077
0.205	41.089	0.084	0.195	0.013	0.096	1.063	0.548	0.470	0.828	1.902	1.797	0.007	0.033	-0.076
0.205	41.092	0.085	0.190	0.024	0.102	1.021	0.529	0.601	0.772	1.901	1.810	0.008	0.032	-0.071
0.205	41.107	0.087	0.186	0.037	0.102	1.039	0.475	0.627	0.798	1.903	1.800	0.006	0.030	-0.066
0.205	41.125	0.091	0.183	0.052	0.098	1.056	0.466	0.598	0.875	1.900	1.805	0.006	0.029	-0.062
0.206	41.119	0.093	0.178	0.067	0.088	1.114	0.458	0.525	0.993	1.901	1.808	0.002	0.026	-0.057
0.206	41.113	0.093	0.173	0.080	0.074	1.157	0.451	0.401	0.962	1.904	1.813	0.001	0.025	-0.049
0.206	41.116	0.092	0.167	0.092	0.056	1.181	0.453	0.299	0.877	1.907	1.816	-0.001	0.022	-0.042
0.206	41.104	0.084	0.162	0.103	0.035	1.165	0.474	0.302	0.814	1.907	1.809	-0.001	0.021	-0.035
0.206	41.110	0.078	0.156	0.111	0.013	1.120	0.502	0.386	0.793	1.913	1.813	-0.005	0.021	-0.028
0.207	41.113	0.075	0.153	0.117	-0.015	1.081	0.563	0.484	0.840	1.911	1.813	-0.009	0.022	-0.024
0.207	41.116	0.072	0.147	0.119	-0.043	1.064	0.633	0.614	0.948	1.914	1.817	-0.011	0.019	-0.018
0.207	41.110	0.074	0.143	0.117	-0.074	1.071	0.668	0.611	1.052	1.915	1.815	-0.014	0.018	-0.013
0.207	41.104	0.079	0.137	0.116	-0.101	1.128	0.677	0.622	1.110	1.919	1.811	-0.021	0.019	-0.009
0.207	41.135	0.084	0.130	0.114	-0.129	1.224	0.656	0.645	1.091	1.914	1.818	-0.022	0.020	-0.007
0.208	41.101	0.089	0.127	0.111	-0.158	1.302	0.656	0.668	1.001	1.913	1.814	-0.026	0.019	-0.006
0.208	41.098	0.096	0.122	0.106	-0.180	1.358	0.611	0.761	0.954	1.913	1.820	-0.029	0.019	-0.003
0.208	41.110	0.095	0.120	0.099	-0.196	1.319	0.631	0.812	0.996	1.904	1.811	-0.033	0.020	-0.005
0.208	41.104	0.094	0.118	0.093	-0.209	1.305	0.689	0.772	1.078	1.916	1.816	-0.038	0.017	-0.005
0.208	41.116	0.084	0.109	0.086	-0.212	1.261	0.708	0.662	1.226	1.906	1.816	-0.040	0.018	-0.009
0.209	41.129	0.081	0.109	0.077	-0.211	1.249	0.762	0.456	1.313	1.904	1.815	-0.044	0.020	-0.013
0.209	41.104	0.076	0.104	0.071	-0.201	1.222	0.783	0.278	1.272	1.916	1.820	-0.047	0.019	-0.012
0.209	41.150	0.077	0.100	0.063	-0.185	1.213	0.803	0.231	1.174	1.911	1.820	-0.049	0.018	-0.021
0.209	41.125	0.079	0.096	0.056	-0.163	1.208	0.813	0.311	1.035	1.912	1.828	-0.053	0.018	-0.019
0.209	41.113	0.085	0.092	0.048	-0.137	1.213	0.817	0.435	0.925	1.915	1.823	-0.056	0.015	-0.021
0.210	41.107	0.090	0.089	0.043	-0.106	1.197	0.832	0.563	0.888	1.924	1.824	-0.057	0.011	-0.023
0.210	41.135	0.094	0.084	0.037	-0.071	1.175	0.827	0.698	0.946	1.924	1.819	-0.059	0.010	-0.025
0.210	41.116	0.095	0.083	0.033	-0.036	1.150	0.814	0.688	1.038	1.918	1.823	-0.065	0.007	-0.026
0.210	41.116	0.093	0.081	0.035	0.000	1.118	0.791	0.498	1.134	1.915	1.823	-0.064	0.003	-0.026
0.210	41.119	0.089	0.079	0.032	0.038	1.090	0.747	0.352	1.120	1.929	1.821	-0.067	-0.001	-0.025
0.211	41.125	0.084	0.080	0.032	0.071	1.055	0.711	0.316	1.058	1.918	1.827	-0.071	-0.007	-0.023
0.211	41.122	0.080	0.079	0.033	0.102	1.001	0.681	0.423	0.932	1.911	1.827	-0.070	-0.014	-0.019
0.211	41.104	0.080	0.079	0.034	0.129	0.941	0.690	0.598	0.797	1.918	1.831	-0.071	-0.019	-0.017
0.211	41.101	0.082	0.077	0.036	0.153	0.892	0.681	0.707	0.716	1.922	1.831	-0.076	-0.023	-0.008
0.211	41.104	0.085	0.074	0.040	0.169	0.850	0.669	0.681	0.773	1.920	1.826	-0.073	-0.031	-0.006
0.212	41.110	0.093	0.073	0.044	0.183	0.864	0.613	0.521	0.910	1.918	1.827	-0.074	-0.036	0.002
0.212	41.092	0.098	0.072	0.047	0.191	0.868	0.567	0.293	1.070	1.923	1.839	-0.074	-0.042	0.009
0.212	41.110	0.103	0.072	0.049	0.197	0.901	0.510	0.157	1.164	1.925	1.840	-0.073	-0.049	0.016
0.212	41.104	0.106	0.072	0.051	0.198	0.893	0.494	0.181	1.127	1.913	1.827	-0.072	-0.056	0.026
0.212	41.098	0.106	0.070	0.053	0.199	0.895	0.494	0.389	1.005	1.926	1.835	-0.073	-0.060	0.033
0.213	41.092	0.105	0.071	0.053	0.194	0.896	0.520	0.650	0.865	1.922	1.828	-0.072	-0.063	0.041
0.213	41.101	0.104	0.069	0.053	0.192	0.923	0.521	0.779	0.799	1.923	1.837	-0.071	-0.066	0.052
0.213	41.104	0.103	0.070	0.052	0.189	0.958	0.520	0.784	0.821	1.925	1.833	-0.068	-0.070	0.061
0.213	41.092	0.103	0.068	0.051	0.184	0.999	0.454	0.635	1.007	1.928	1.836	-0.067	-0.072	0.068
0.213	41.107	0.104	0.066	0.049	0.184	1.025	0.352	0.457	1.224	1.934	1.841	-0.066	-0.072	0.081
0.214	41.098	0.105	0.061	0.048	0.186	1.013	0.245	0.299	1.310	1.922	1.844	-0.063	-0.073	0.087
0.214	41.083	0.106	0.056	0.047	0.185	1.015	0.167	0.284	1.249	1.927	1.843	-0.059	-0.072	0.097
0.214	41.095	0.109	0.052	0.046	0.188	0.994	0.150	0.379	1.091	1.933	1.840	-0.059	-0.071	0.104
0.214	41.095	0.109	0.049	0.047	0.192	0.998	0.155	0.520	0.930	1.933	1.843	-0.057	-0.065	0.113
0.214	41.095	0.103	0.047	0.054	0.193	0.990	0.179	0.617	0.825	1.927	1.847	-0.052	-0.064	0.120
0.215	41.104	0.099	0.045	0.055	0.198	1.043	0.156	0.571	0.853	1.928	1.840	-0.051	-0.057	0.127
0.215	41.080	0.094	0.046	0.059	0.203	1.089	0.121	0.487	0.987	1.926	1.839	-0.053	-0.053	0.135
0.215	41.071	0.090	0.044	0.063	0.205	1.184	0.052	0.373	1.086	1.932	1.846	-0.047	-0.046	0.144
0.215	41.092	0.085	0.046	0.068	0.209	1.275	0.015	0.305	1.132	1.926	1.849	-0.048	-0.039	0.146
0.215	41.092	0.084	0.044	0.073	0.213	1.333	-0.023	0.340	1.074	1.935	1.852	-0.047	-0.032	0.153
0.216	41.098	0.085	0.042	0.075	0.216	1.354	-0.033	0.451	0.938	1.932	1.847	-0.047	-0.029	0.159
0.216	41.095	0.083	0.037	0.081	0.218	1.307	-0.001	0.537	0.803	1.940	1.847	-0.046	-0.017	0.164
0.216	41.080	0.082	0.034	0.085	0.221	1.274	0.026	0.602	0.778	1.939	1.846	-0.051	-0.010	0.165
0.216	41.071	0.083	0.027	0.088	0.224	1.231	0.051	0.555	0.845	1.935	1.854	-0.054	-0.003	0.172
0.216	41.098	0.078	0.023	0.091	0.227	1.234	0.043	0.451	0.958	1.937	1.851	-0.058	0.005	0.180
0.217	41.119	0.075	0.016	0.091	0.230	1.264	0.034	0.338	1.065	1.931	1.848	-0.061	0.012	0.183
0.217	41.101	0.074	0.011	0.089	0.231	1.340	0.012	0.265	1.102	1.937	1.851	-0.066	0.021	0.191
0.217	41.107	0.072	0.005	0.088	0.235	1.406	0.023	0.249	1.072	1.940	1.851	-0.072	0.026	0.193
0.217	41.104	0.073	-0.000	0.084	0.238	1.457	0.062	0.222	0.965	1.925	1.853	-0.077	0.033	0.199
0.217	41.116	0.072	-0.005	0.077	0.242	1.446	0.122	0.234	0.894	1.935	1.855	-0.088	0.041	0.203
0.218	41.110	0.068	-0.010	0.071	0.243	1.385	0.160	0.253	0.886	1.939	1.859	-0.090	0.049	0.206
0.218	41.098	0.067	-0.013	0.065	0.245	1.328	0.153	0.215	0.959	1.937	1.848	-0.092	0.052	0.211
0.218	41.098	0.060	-0.021	0.057	0.250	1.286	0.061	0.170	1.083	1.939	1.853	-0.102	0.060	0.216
0.218	41.116	0.051	-0.025	0.049	0.253	1.266	-0.028	0.191	1.165	1.939	1.855	-0.110	0.066	0.219
0.218	41.101	0.048	-0.033	0.043	0.258	1.326	-0.109	0.233	1.128	1.937	1.860	-0.112	0.070	0.225
0.219	41.107	0.040	-0.039	0.038	0.263	1.354	-0.144	0.357	1.048	1.931	1.852	-0.116	0.083	0.225
0.219	41.098	0.038	-0.046	0.036	0.269	1.381	-0.069	0.470	0.953	1.941	1.852	-0.122	0.083	0.227
0.219	41.092	0.040	-0.056	0.033	0.276	1.371	0.004	0.476	0.932	1.938	1.860	-0.126	0.089	0.233
0.219	41.110	0.043	-0.060	0.032	0.281	1.319	0.090	0.460	1.016	1.937	1.867	-0.129	0.093	0.236
0.219	41.086	0.049	-0.067	0.033	0.287	1.307	0.117	0.383	1.149	1.929	1.865	-0.133	0.098	0.242
0.220	41.095	0.049	-0.069	0.038	0.293	1.298	0.108	0.328	1.261	1.947	1.857	-0.134	0.101	0.244
0.220	41.101	0.047	-0.071	0.042	0.302	1.368	0.039	0.324	1.330	1.939	1.861	-0.138	0.105	0.244
0.220	41.107	0.042	-0.068	0.047	0.309	1.434	-0.007	0.340	1.305	1.948	1.865	-0.138	0.107	0.247
0.220	41.113	0.034	-0.066	0.053	0.319	1.520	-0.025	0.301	1.200	1.947	1.870	-0.138	0.108	0.249
0.220	41.122	0.025	-0.061	0.056	0.329	1.539	-0.002	0.201	1.079	1.947	1.863	-0.137	0.112	0.247
0.221	41.101	0.016	-0.055	0.063	0.340	1.514	0.036	0.131	0.920	1.958	1.863	-0.138	0.110	0.247
0.221	41.089	0.011	-0.049	0.068	0.349	1.459	0.069	0.154	0.883	1.954	1.872	-0.139	0.110	0.245
0.221	41.104	0.011	-0.043	0.074	0.356	1.381	0.068	0.226	0.897	1.954	1.868	-0.137	0.109	0.245
0.221	41.095	0.015	-0.035	0.079	0.371	1.353	0.045	0.298	0.926	1.955	1.866	-0.137	0.105	0.242
0.221	41.098	0.020	-0.036	0.083	0.379	1.379	0.003	0.359	0.978	1.948	1.867	-0.134	0.102	0.241
0.222	41.116	0.024	-0.036	0.087	0.387	1.454	0.008	0.385	1.034	1.956	1.861	-0.135	0.098	0.237
0.222	41.113	0.024	-0.038	0.092	0.391	1.545	0.036	0.354	1.029	1.954	1.873	-0.135	0.094	0.233
0.222	41.116	0.020	-0.042	0.095	0.396	1.604	0.095	0.326	1.055	1.957	1.876	-0.133	0.086	0.227
0.222	41.119	0.013	-0.048	0.095	0.396	1.625	0.128	0.310	1.088	1.944	1.873	-0.134	0.078	0.221
0.222	41.110	0.007	-0.055	0.093	0.397	1.612	0.140	0.401	1.127	1.948	1.871	-0.137	0.072	0.218
0.223	41.119	0.000	-0.063	0.090	0.394	1.583	0.160	0.441	1.204	1.960	1.870	-0.136	0.063	0.213
0.223	41.119	-0.003	-0.067	0.082	0.393	1.544	0.153	0.441	1.266	1.954	1.880	-0.132	0.054	0.208
0.223	41.125	-0.001	-0.072	0.072	0.388	1.518	0.080	0.364	1.336	1.957	1.875	-0.129	0.044	0.205
0.223	41.122	0.005	-0.078	0.061	0.382	1.526	0.033	0.256	1.309	1.971	1.883	-0.128	0.036	0.204
0.223	41.122	0.012	-0.083	0.050	0.380	1.466	0.012	0.174	1.211	1.957	1.885	-0.125	0.026	0.201
0.224	41.116	0.016	-0.087	0.034	0.376	1.406	0.032	0.186	1.087	1.957	1.883	-0.122	0.017	0.201
0.224	41.129	0.017	-0.092	0.016	0.373	1.338	0.047	0.282	0.992	1.966	1.881	-0.118	0.009	0.208
0.224	41.141	0.014	-0.095	0.002	0.370	1.273	0.037	0.393	0.985	1.960	1.881	-0.113	0.001	0.213
0.224	41.150	0.012	-0.097	-0.012	0.371	1.222	0.021	0.478	1.075	1.955	1.873	-0.106	-0.005	0.216
0.224	41.125	0.007	-0.098	-0.027	0.373	1.193	-0.051	0.422	1.221	1.961	1.875	-0.101	-0.012	0.227
0.225	41.141	0.007	-0.097	-0.041	0.375	1.178	-0.111	0.310	1.372	1.974	1.882	-0.095	-0.020	0.237
0.225	41.125	0.006	-0.094	-0.054	0.379	1.191	-0.142	0.231	1.435	1.972	1.883	-0.087	-0.024	0.248
0.225	41.138	0.009	-0.092	-0.067	0.386	1.185	-0.129	0.278	1.387	1.967	1.890	-0.081	-0.025	0.260
0.225	41.125	0.012	-0.090	-0.076	0.393	1.208	-0.088	0.424	1.259	1.968	1.886	-0.076	-0.027	0.272
0.225	41.138	0.011	-0.089	-0.080	0.404	1.243	-0.074	0.591	1.122	1.976	1.885	-0.067	-0.030	0.287
0.226	41.159	0.002	-0.089	-0.088	0.415	1.271	-0.072	0.634	1.081	1.972	1.889	-0.062	-0.029	0.301
0.226	41.122	-0.006	-0.091	-0.091	0.429	1.274	-0.134	0.551	1.132	1.977	1.885	-0.059	-0.031	0.314
0.226	41.144	-0.016	-0.097	-0.092	0.444	1.278	-0.187	0.355	1.289	1.982	1.889	-0.050	-0.029	0.326
0.226	41.138	-0.026	-0.101	-0.089	0.459	1.215	-0.227	0.121	1.375	1.974	1.885	-0.044	-0.028	0.336
0.226	41.138	-0.030	-0.107	-0.082	0.475	1.143	-0.260	0.031	1.350	1.975	1.894	-0.040	-0.026	0.348
0.227	41.135	-0.033	-0.115	-0.071	0.488	1.124	-0.239	0.112	1.188	1.981	1.889	-0.036	-0.023	0.354
0.227	41.144	-0.027	-0.124	-0.057	0.502	1.089	-0.197	0.329	0.982	1.983	1.896	-0.035	-0.019	0.360
0.227	41.138	-0.026	-0.131	-0.040	0.511	1.103	-0.169	0.511	0.819	1.978	1.890	-0.033	-0.016	0.363
0.227	41.135	-0.020	-0.138	-0.020	0.516	1.208	-0.160	0.599	0.871	1.979	1.897	-0.032	-0.012	0.362
0.227	41.147	-0.020	-0.143	0.001	0.520	1.289	-0.208	0.522	1.071	1.977	1.901	-0.032	-0.008	0.359
0.228	41.159	-0.025	-0.147	0.026	0.522	1.389	-0.291	0.296	1.295	1.980	1.890	-0.036	-0.002	0.357
0.228	41.156	-0.035	-0.146	0.052	0.520	1.396	-0.325	0.110	1.387	1.983	1.894	-0.035	0.002	0.349
0.228	41.183	-0.041	-0.146	0.077	0.515	1.354	-0.313	0.106	1.366	1.984	1.885	-0.039	0.006	0.341
0.228	41.165	-0.050	-0.145	0.103	0.509	1.237	-0.283	0.324	1.222	1.984	1.894	-0.041	0.012	0.331
0.228	41.162	-0.054	-0.145	0.128	0.500	1.112	-0.217	0.583	1.057	1.996	1.898	-0.045	0.013	0.321
0.229	41.171	-0.048	-0.145	0.151	0.490	1.107	-0.184	0.749	1.002	1.985	1.902	-0.046	0.018	0.309
0.229	41.180	-0.047	-0.146	0.172	0.477	1.143	-0.193	0.742	1.065	1.985	1.898	-0.049	0.024	0.295
0.229	41.180	-0.042	-0.144	0.191	0.461	1.263	-0.198	0.592	1.167	1.993	1.893	-0.049	0.026	0.284
0.229	41.190	-0.039	-0.144	0.207	0.448	1.321	-0.238	0.438	1.285	1.987	1.894	-0.052	0.032	0.268
0.229	41.190	-0.041	-0.143	0.220	0.432	1.351	-0.231	0.373	1.298	1.990	1.897	-0.055	0.036	0.256
0.230	41.205	-0.047	-0.141	0.235	0.420	1.335	-0.218	0.398	1.221	1.982	1.902	-0.055	0.038	0.242
0.230	41.165	-0.053	-0.140	0.238	0.408	1.296	-0.211	0.473	1.108	1.982	1.898	-0.056	0.040	0.231
0.230	41.177	-0.064	-0.141	0.242	0.398	1.266	-0.193	0.544	1.032	1.982	1.910	-0.059	0.043	0.221
0.230	41.183	-0.068	-0.140	0.245	0.391	1.272	-0.193	0.517	1.031	1.987	1.903	-0.054	0.045	0.212
0.230	41.190	-0.070	-0.135	0.244	0.387	1.318	-0.170	0.411	1.117	1.981	1.901	-0.057	0.046	0.203
0.231	41.211	-0.070	-0.136	0.241	0.387	1.383	-0.165	0.254	1.181	1.984	1.897	-0.056	0.048	0.195
0.231	41.187	-0.071	-0.135	0.233	0.389	1.430	-0.128	0.167	1.180	1.987	1.902	-0.055	0.047	0.189
0.231	41.183	-0.070	-0.139	0.227	0.393	1.440	-0.092	0.184	1.140	1.980	1.910	-0.052	0.049	0.184
0.231	41.187	-0.073	-0.142	0.217	0.399	1.394	-0.036	0.291	1.077	1.989	1.902	-0.051	0.046	0.176
0.231	41.202	-0.077	-0.144	0.206	0.404	1.355	0.027	0.336	1.011	1.994	1.906	-0.050	0.044	0.175
0.232	41.196	-0.083	-0.147	0.196	0.411	1.350	0.069	0.367	1.032	2.001	1.901	-0.048	0.042	0.174
0.232	41.202	-0.090	-0.151	0.184	0.417	1.394	0.114	0.319	1.127	1.999	1.901	-0.046	0.041	0.168
0.232	41.187	-0.092	-0.154	0.176	0.423	1.470	0.106	0.292	1.262	1.993	1.913	-0.047	0.037	0.168
0.232	41.205	-0.094	-0.157	0.167	0.424	1.527	0.081	0.310	1.322	1.993	1.911	-0.045	0.034	0.169
0.232	41.177	-0.092	-0.159	0.158	0.420	1.550	0.073	0.388	1.286	1.988	1.909	-0.042	0.029	0.168
0.233	41.187	-0.092	-0.159	0.150	0.418	1.510	0.092	0.518	1.292	1.981	1.914	-0.040	0.026	0.167
0.233	41.190	-0.093	-0.159	0.147	0.410	1.426	0.133	0.687	1.264	1.990	1.901	-0.039	0.022	0.170
0.233	41.168	-0.094	-0.159	0.145	0.401	1.383	0.198	0.767	1.307	1.990	1.907	-0.038	0.017	0.171
0.233	41.199	-0.098	-0.157	0.141	0.387	1.401	0.243	0.725	1.396	1.987	1.915	-0.036	0.012	0.173
0.233	41.180	-0.100	-0.159	0.140	0.369	1.468	0.278	0.646	1.479	1.987	1.906	-0.037	0.007	0.177
0.234	41.205	-0.100	-0.162	0.140	0.350	1.569	0.282	0.529	1.440	1.992	1.905	-0.035	0.004	0.180
0.234	41.208	-0.099	-0.160	0.141	0.328	1.629	0.301	0.501	1.317	1.990	1.909	-0.032	-0.000	0.184
0.234	41.205	-0.093	-0.160	0.143	0.303	1.651	0.282	0.520	1.145	1.991	1.907	-0.031	-0.005	0.189
0.234	41.171	-0.086	-0.159	0.146	0.279	1.609	0.278	0.601	1.079	1.995	1.909	-0.028	-0.009	0.193
0.234	41.183	-0.079	-0.159	0.147	0.255	1.527	0.290	0.594	1.065	1.981	1.907	-0.023	-0.013	0.201
0.235	41.208	-0.071	-0.160	0.146	0.234	1.446	0.313	0.488	1.099	1.988	1.912	-0.026	-0.019	0.206
0.235	41.211	-0.068	-0.161	0.146	0.212	1.398	0.354	0.366	1.148	1.997	1.909	-0.024	-0.022	0.212
0.235	41.199	-0.069	-0.162	0.145	0.195	1.410	0.400	0.284	1.191	1.988	1.911	-0.024	-0.026	0.219
0.235	41.199	-0.072	-0.162	0.142	0.182	1.433	0.431	0.291	1.166	1.986	1.910	-0.022	-0.027	0.223
0.235	41.196	-0.074	-0.163	0.137	0.171	1.489	0.421	0.337	1.070	1.991	1.906	-0.021	-0.033	0.230
0.236	41.183	-0.078	-0.163	0.132	0.167	1.510	0.372	0.410	1.056	1.991	1.915	-0.019	-0.035	0.232
0.236	41.202	-0.078	-0.162	0.123	0.167	1.495	0.319	0.486	1.127	1.988	1.909	-0.019	-0.036	0.238
0.236	41.190	-0.077	-0.159	0.116	0.173	1.447	0.291	0.553	1.231	1.991	1.911	-0.017	-0.042	0.241
0.236	41.208	-0.074	-0.154	0.109	0.182	1.383	0.264	0.567	1.347	1.989	1.916	-0.016	-0.041	0.241
0.236	41.202	-0.070	-0.148	0.103	0.192	1.294	0.262	0.578	1.396	1.986	1.911	-0.015	-0.041	0.238
0.237	41.214	-0.067	-0.140	0.099	0.206	1.198	0.239	0.597	1.347	1.991	1.911	-0.016	-0.043	0.238
0.237	41.232	-0.066	-0.129	0.095	0.220	1.119	0.191	0.640	1.265	1.999	1.913	-0.015	-0.044	0.236
0.237	41.193	-0.069	-0.120	0.097	0.236	1.089	0.118	0.639	1.198	1.995	1.917	-0.016	-0.041	0.235
0.237	41.196	-0.075	-0.109	0.098	0.251	1.104	0.048	0.615	1.193	1.994	1.914	-0.016	-0.044	0.233
0.237	41.211	-0.082	-0.101	0.107	0.264	1.141	0.028	0.558	1.297	1.993	1.914	-0.014	-0.043	0.224
0.238	41.187	-0.084	-0.094	0.114	0.276	1.180	0.070	0.470	1.329	1.991	1.912	-0.019	-0.043	0.219
0.238	41.193	-0.087	-0.089	0.126	0.285	1.190	0.166	0.435	1.293	1.986	1.912	-0.019	-0.039	0.213
0.238	41.196	-0.088	-0.081	0.137	0.287	1.181	0.298	0.473	1.190	1.994	1.918	-0.015	-0.038	0.207
0.238	41.196	-0.082	-0.078	0.150	0.289	1.186	0.362	0.486	1.076	1.991	1.909	-0.015	-0.037	0.203
0.238	41.199	-0.081	-0.076	0.164	0.287	1.148	0.366	0.516	1.019	1.989	1.919	-0.014	-0.031	0.196
0.239	41.183	-0.079	-0.074	0.177	0.277	1.130	0.350	0.449	1.028	1.997	1.915	-0.015	-0.034	0.189
0.239	41.196	-0.082	-0.078	0.189	0.266	1.083	0.256	0.364	1.190	1.988	1.917	-0.013	-0.025	0.181
0.239	41.199	-0.087	-0.073	0.199	0.248	1.013	0.203	0.281	1.311	1.996	1.919	-0.011	-0.021	0.177
0.239	41.165	-0.093	-0.072	0.208	0.233	0.957	0.181	0.225	1.399	1.999	1.915	-0.010	-0.012	0.172
0.239	41.183	-0.099	-0.066	0.213	0.216	0.926	0.220	0.266	1.408	1.997	1.914	-0.009	-0.010	0.165
0.240	41.174	-0.104	-0.066	0.214	0.198	0.948	0.263	0.328	1.346	1.999	1.916	-0.009	-0.003	0.163
0.240	41.168	-0.108	-0.065	0.212	0.184	1.008	0.290	0.415	1.272	1.995	1.913	-0.007	0.002	0.158
0.240	41.168	-0.108	-0.066	0.208	0.172	1.059	0.271	0.498	1.260	1.994	1.909	-0.004	0.009	0.154
0.240	41.150	-0.106	-0.068	0.200	0.164	1.090	0.225	0.531	1.340	2.012	1.918	-0.003	0.016	0.151
0.240	41.156	-0.106	-0.072	0.193	0.159	1.079	0.180	0.512	1.472	1.998	1.920	-0.003	0.024	0.143
0.241	41.156	-0.106	-0.074	0.186	0.158	1.018	0.148	0.451	1.596	2.004	1.923	-0.001	0.029	0.140
0.241	41.144	-0.113	-0.077	0.176	0.161	0.926	0.138	0.354	1.595	1.994	1.909	0.003	0.036	0.134
0.241	41.138	-0.115	-0.080	0.168	0.167	0.872	0.178	0.349	1.479	1.999	1.918	0.001	0.041	0.131
0.241	41.138	-0.126	-0.084	0.161	0.174	0.901	0.272	0.387	1.285	1.999	1.920	0.005	0.047	0.128
0.241	41.132	-0.134	-0.080	0.155	0.183	0.972	0.374	0.390	1.163	1.998	1.923	0.005	0.055	0.122
0.242	41.132	-0.139	-0.078	0.152	0.193	1.090	0.415	0.427	1.128	1.995	1.918	0.007	0.060	0.120
0.242	41.119	-0.142	-0.077	0.153	0.204	1.174	0.397	0.425	1.201	2.003	1.918	0.007	0.065	0.118
0.242	41.132	-0.144	-0.074	0.155	0.213	1.169	0.404	0.414	1.297	2.001	1.915	0.007	0.069	0.115
0.242	41.132	-0.144	-0.067	0.157	0.223	1.127	0.387	0.395	1.330	2.006	1.910	0.007	0.072	0.112
0.242	41.135	-0.143	-0.061	0.162	0.230	1.046	0.401	0.421	1.312	2.001	1.923	0.008	0.075	0.114
0.243	41.098	-0.144	-0.055	0.169	0.239	0.975	0.463	0.451	1.209	1.997	1.915	0.008	0.077	0.113
0.243	41.132	-0.146	-0.051	0.177	0.248	0.979	0.569	0.478	1.093	2.000	1.922	0.007	0.079	0.115
0.243	41.104	-0.150	-0.049	0.189	0.253	0.981	0.705	0.463	1.030	2.006	1.924	0.006	0.078	0.116
0.243	41.107	-0.151	-0.049	0.198	0.261	1.007	0.810	0.428	1.030	2.006	1.917	0.007	0.077	0.121
0.243	41.110	-0.153	-0.049	0.210	0.269	0.977	0.866	0.376	1.074	2.001	1.920	0.007	0.076	0.122
0.244	41.101	-0.153	-0.052	0.216	0.270	0.934	0.828	0.301	1.114	2.002	1.916	0.005	0.075	0.127
0.244	41.098	-0.149	-0.054	0.229	0.272	0.875	0.753	0.238	1.102	2.014	1.920	0.008	0.071	0.129
0.244	41.116	-0.144	-0.059	0.237	0.277	0.863	0.663	0.216	1.082	2.015	1.926	0.007	0.070	0.133
0.244	41.116	-0.139	-0.062	0.244	0.276	0.887	0.614	0.272	1.034	2.002	1.927	0.006	0.068	0.139
0.244	41.116	-0.136	-0.063	0.253	0.274	0.923	0.645	0.338	1.034	2.007	1.919	0.008	0.065	0.143
0.245	41.101	-0.135	-0.064	0.257	0.274	0.967	0.716	0.364	1.107	2.001	1.920	0.010	0.061	0.146
0.245	41.113	-0.134	-0.062	0.262	0.271	0.987	0.787	0.331	1.183	2.011	1.919	0.010	0.059	0.148
0.245	41.113	-0.130	-0.060	0.266	0.266	0.982	0.843	0.329	1.232	2.004	1.926	0.012	0.057	0.149
0.245	41.098	-0.128	-0.061	0.265	0.260	0.930	0.865	0.293	1.254	2.011	1.915	0.012	0.053	0.152
0.245	41.101	-0.122	-0.057	0.266	0.254	0.868	0.854	0.278	1.272	2.008	1.925	0.014	0.050	0.152
0.246	41.089	-0.118	-0.057	0.263	0.246	0.796	0.819	0.256	1.288	2.014	1.924	0.013	0.046	0.152
0.246	41.107	-0.107	-0.055	0.262	0.238	0.767	0.751	0.215	1.340	2.002	1.914	0.014	0.045	0.153
0.246	41.116	-0.100	-0.052	0.264	0.231	0.768	0.702	0.184	1.399	2.007	1.922	0.014	0.043	0.150
0.246	41.104	-0.093	-0.050	0.264	0.224	0.829	0.684	0.126	1.387	2.009	1.926	0.012	0.041	0.146
0.246	41.089	-0.089	-0.049	0.265	0.217	0.896	0.677	0.084	1.270	2.008	1.922	0.014	0.039	0.139
0.247	41.116	-0.082	-0.046	0.266	0.211	0.971	0.692	0.112	1.131	2.010	1.926	0.011	0.038	0.137
0.247	41.113	-0.078	-0.044	0.264	0.209	0.978	0.684	0.149	1.034	2.017	1.920	0.010	0.036	0.131
0.247	41.132	-0.075	-0.040	0.263	0.209	0.973	0.653	0.195	1.020	2.008	1.927	0.007	0.036	0.121
0.247	41.138	-0.069	-0.036	0.260	0.212	0.934	0.629	0.171	1.096	2.005	1.927	0.005	0.033	0.113
0.247	41.125	-0.066	-0.033	0.256	0.217	0.864	0.605	0.099	1.257	2.002	1.927	0.002	0.031	0.106
0.248	41.129	-0.063	-0.031	0.248	0.224	0.797	0.587	0.068	1.406	2.014	1.923	0.001	0.028	0.095
0.248	41.119	-0.060	-0.029	0.238	0.235	0.760	0.543	0.121	1.458	2.008	1.933	-0.007	0.024	0.087
0.248	41.147	-0.061	-0.029	0.229	0.249	0.752	0.540	0.146	1.410	2.015	1.933	-0.012	0.022	0.077
0.248	41.162	-0.062	-0.030	0.220	0.262	0.766	0.520	0.168	1.359	2.010	1.929	-0.013	0.015	0.068
0.248	41.132	-0.062	-0.035	0.206	0.279	0.843	0.473	0.126	1.358	2.008	1.924	-0.022	0.010	0.061
