Comment:	20231003 sppedbump
Time	Vehicle Speed	FL Sprung acceleration	FR Sprung acceleration	RL Sprung acceleration	RR Sprung acceleration	FL Unsprung acceleration	FR Unsprung acceleration	RL Unsprung acceleration	RR Unsprung acceleration	Bellow pressure RL	Bellow pressure RR	Acceleration X	Acceleration Y	Acceleration Z
s	km/h	gn	gn	gn	gn	gn	gn	gn	gn	bar	bar	g	g	g
0.000	19.058	-0.103	-0.109	-0.033	0.110	0.753	0.592	0.638	1.520	1.846	1.731	-0.017	-0.017	-0.038
0.000	19.058	-0.106	-0.109	-0.028	0.118	0.749	0.618	0.626	1.552	1.863	1.733	-0.015	-0.014	-0.038
0.000	19.049	-0.110	-0.110	-0.021	0.125	0.755	0.627	0.657	1.534	1.855	1.738	-0.012	-0.010	-0.035
0.001	19.089	-0.110	-0.111	-0.014	0.130	0.749	0.631	0.668	1.531	1.856	1.736	-0.010	-0.006	-0.033
0.001	19.073	-0.112	-0.109	-0.007	0.134	0.719	0.646	0.682	1.566	1.844	1.737	-0.008	-0.003	-0.037
0.001	19.086	-0.111	-0.106	-0.000	0.137	0.703	0.632	0.656	1.580	1.846	1.744	-0.006	0.001	-0.037
0.001	19.067	-0.111	-0.103	0.006	0.140	0.684	0.637	0.632	1.623	1.863	1.734	-0.003	0.001	-0.038
0.001	19.061	-0.111	-0.100	0.010	0.141	0.676	0.635	0.623	1.666	1.867	1.734	-0.002	0.006	-0.040
0.002	19.058	-0.111	-0.094	0.012	0.140	0.662	0.644	0.646	1.673	1.866	1.739	-0.001	0.004	-0.042
0.002	19.064	-0.114	-0.090	0.011	0.137	0.666	0.653	0.682	1.652	1.865	1.745	-0.001	0.010	-0.044
0.002	19.052	-0.116	-0.084	0.012	0.133	0.646	0.651	0.695	1.651	1.856	1.740	0.001	0.011	-0.045
0.002	19.052	-0.119	-0.080	0.009	0.128	0.637	0.635	0.678	1.651	1.858	1.746	0.002	0.014	-0.049
0.002	19.061	-0.119	-0.079	0.005	0.120	0.642	0.609	0.629	1.634	1.868	1.741	0.001	0.015	-0.050
0.003	19.055	-0.122	-0.077	-0.001	0.114	0.650	0.579	0.596	1.650	1.862	1.738	0.004	0.016	-0.052
0.003	19.073	-0.123	-0.076	-0.008	0.107	0.674	0.577	0.577	1.671	1.859	1.737	0.001	0.018	-0.051
0.003	19.043	-0.124	-0.073	-0.016	0.095	0.666	0.594	0.587	1.674	1.868	1.746	-0.001	0.018	-0.053
0.003	19.055	-0.125	-0.072	-0.021	0.083	0.664	0.615	0.609	1.670	1.865	1.744	-0.001	0.022	-0.049
0.003	19.049	-0.127	-0.070	-0.030	0.078	0.664	0.630	0.631	1.686	1.867	1.737	-0.002	0.022	-0.045
0.004	19.055	-0.131	-0.068	-0.038	0.072	0.655	0.634	0.638	1.713	1.856	1.745	-0.003	0.025	-0.045
0.004	19.043	-0.133	-0.066	-0.044	0.062	0.674	0.622	0.619	1.745	1.859	1.744	-0.001	0.025	-0.040
0.004	19.055	-0.135	-0.063	-0.052	0.055	0.682	0.608	0.599	1.770	1.865	1.749	0.000	0.029	-0.039
0.004	19.049	-0.135	-0.060	-0.058	0.052	0.711	0.620	0.584	1.794	1.867	1.748	0.000	0.031	-0.033
0.004	19.046	-0.137	-0.061	-0.066	0.049	0.712	0.640	0.565	1.826	1.866	1.740	0.003	0.033	-0.027
0.005	19.025	-0.133	-0.057	-0.076	0.047	0.738	0.675	0.563	1.820	1.864	1.750	0.002	0.035	-0.024
0.005	19.034	-0.132	-0.057	-0.083	0.045	0.712	0.693	0.591	1.799	1.871	1.746	0.005	0.037	-0.018
0.005	19.040	-0.127	-0.059	-0.089	0.047	0.690	0.702	0.578	1.794	1.866	1.746	0.005	0.040	-0.010
0.005	19.052	-0.125	-0.055	-0.097	0.048	0.681	0.705	0.568	1.768	1.881	1.741	0.005	0.042	-0.007
0.005	19.049	-0.121	-0.055	-0.105	0.051	0.693	0.692	0.543	1.761	1.877	1.746	0.010	0.044	-0.001
0.006	19.040	-0.118	-0.051	-0.111	0.053	0.732	0.714	0.548	1.758	1.874	1.749	0.011	0.047	0.003
0.006	19.025	-0.117	-0.050	-0.115	0.058	0.764	0.717	0.565	1.793	1.881	1.752	0.014	0.049	0.009
0.006	19.043	-0.120	-0.045	-0.122	0.062	0.772	0.735	0.569	1.848	1.875	1.750	0.016	0.054	0.013
0.006	19.031	-0.117	-0.042	-0.121	0.066	0.773	0.760	0.584	1.906	1.881	1.749	0.016	0.054	0.016
0.006	19.058	-0.113	-0.040	-0.120	0.069	0.771	0.762	0.584	1.952	1.877	1.754	0.019	0.056	0.020
0.007	19.022	-0.113	-0.036	-0.118	0.071	0.750	0.729	0.581	1.980	1.878	1.751	0.018	0.060	0.022
0.007	19.073	-0.106	-0.041	-0.112	0.073	0.750	0.689	0.569	1.998	1.878	1.755	0.019	0.062	0.025
0.007	19.012	-0.102	-0.042	-0.106	0.075	0.755	0.652	0.559	1.989	1.879	1.751	0.018	0.062	0.026
0.007	19.046	-0.100	-0.044	-0.099	0.075	0.787	0.643	0.558	1.976	1.880	1.748	0.019	0.064	0.027
0.007	19.009	-0.093	-0.050	-0.090	0.076	0.812	0.655	0.555	1.954	1.881	1.754	0.017	0.064	0.028
0.008	19.025	-0.093	-0.054	-0.082	0.076	0.846	0.682	0.535	1.943	1.883	1.758	0.018	0.067	0.027
0.008	19.025	-0.089	-0.056	-0.070	0.081	0.847	0.712	0.522	1.943	1.887	1.759	0.019	0.067	0.028
0.008	19.034	-0.085	-0.057	-0.058	0.083	0.839	0.711	0.508	1.937	1.875	1.753	0.016	0.068	0.026
0.008	19.034	-0.084	-0.059	-0.048	0.086	0.834	0.688	0.498	1.941	1.882	1.757	0.016	0.068	0.024
0.008	19.016	-0.078	-0.063	-0.035	0.091	0.846	0.635	0.489	1.967	1.888	1.754	0.012	0.068	0.023
0.009	19.028	-0.078	-0.065	-0.023	0.095	0.841	0.623	0.470	1.965	1.884	1.757	0.011	0.069	0.020
0.009	19.031	-0.074	-0.068	-0.013	0.101	0.849	0.610	0.473	1.981	1.884	1.753	0.009	0.068	0.018
0.009	19.067	-0.067	-0.069	-0.003	0.104	0.853	0.655	0.514	1.990	1.888	1.757	0.006	0.066	0.017
0.009	19.025	-0.067	-0.073	0.005	0.109	0.834	0.677	0.556	2.022	1.886	1.751	0.005	0.068	0.012
0.009	19.022	-0.062	-0.072	0.013	0.115	0.813	0.702	0.574	2.097	1.876	1.756	0.001	0.065	0.009
0.010	19.037	-0.056	-0.076	0.019	0.120	0.807	0.681	0.560	2.128	1.884	1.761	0.001	0.061	0.006
0.010	19.019	-0.054	-0.079	0.027	0.128	0.798	0.639	0.538	2.210	1.892	1.757	-0.001	0.059	-0.001
0.010	19.049	-0.054	-0.078	0.034	0.131	0.839	0.620	0.518	2.252	1.889	1.755	-0.001	0.057	-0.004
0.010	19.037	-0.050	-0.078	0.042	0.136	0.846	0.562	0.505	2.254	1.889	1.760	-0.002	0.053	-0.011
0.010	19.043	-0.051	-0.075	0.050	0.138	0.866	0.609	0.522	2.243	1.884	1.761	-0.003	0.050	-0.015
0.011	19.037	-0.048	-0.075	0.061	0.141	0.871	0.641	0.532	2.215	1.894	1.759	-0.003	0.046	-0.021
0.011	19.043	-0.044	-0.072	0.067	0.143	0.861	0.665	0.553	2.160	1.885	1.763	-0.003	0.044	-0.027
0.011	19.052	-0.043	-0.071	0.078	0.144	0.851	0.662	0.541	2.130	1.890	1.759	-0.003	0.040	-0.029
0.011	19.046	-0.041	-0.068	0.086	0.146	0.835	0.635	0.524	2.135	1.889	1.763	0.000	0.035	-0.035
0.011	19.025	-0.038	-0.066	0.096	0.147	0.851	0.607	0.513	2.128	1.884	1.765	-0.002	0.033	-0.037
0.012	19.055	-0.040	-0.064	0.105	0.146	0.888	0.574	0.510	2.161	1.887	1.763	0.000	0.031	-0.042
0.012	19.061	-0.041	-0.061	0.116	0.147	0.889	0.577	0.525	2.182	1.897	1.756	0.002	0.028	-0.043
0.012	19.049	-0.040	-0.060	0.125	0.148	0.888	0.578	0.550	2.209	1.894	1.765	0.003	0.028	-0.045
0.012	19.049	-0.042	-0.057	0.133	0.148	0.874	0.610	0.562	2.250	1.892	1.761	0.006	0.023	-0.047
0.012	19.058	-0.040	-0.056	0.141	0.150	0.850	0.626	0.592	2.233	1.886	1.763	0.008	0.022	-0.046
0.013	19.083	-0.040	-0.055	0.148	0.151	0.778	0.619	0.617	2.267	1.890	1.759	0.011	0.021	-0.046
0.013	19.089	-0.040	-0.056	0.156	0.151	0.755	0.597	0.652	2.275	1.898	1.769	0.015	0.020	-0.044
0.013	19.098	-0.041	-0.057	0.162	0.152	0.755	0.558	0.664	2.288	1.894	1.766	0.015	0.020	-0.043
0.013	19.092	-0.044	-0.057	0.165	0.154	0.766	0.526	0.690	2.276	1.901	1.771	0.018	0.021	-0.040
0.013	19.104	-0.045	-0.058	0.169	0.153	0.788	0.506	0.725	2.257	1.892	1.764	0.022	0.019	-0.036
0.014	19.101	-0.049	-0.062	0.169	0.156	0.775	0.495	0.726	2.216	1.898	1.762	0.025	0.020	-0.035
0.014	19.107	-0.050	-0.067	0.170	0.156	0.764	0.504	0.728	2.174	1.898	1.770	0.029	0.019	-0.030
0.014	19.135	-0.051	-0.070	0.168	0.154	0.739	0.500	0.699	2.167	1.896	1.772	0.030	0.019	-0.027
0.014	19.122	-0.052	-0.075	0.169	0.150	0.712	0.495	0.676	2.211	1.903	1.769	0.031	0.018	-0.022
0.014	19.113	-0.053	-0.078	0.168	0.150	0.715	0.482	0.669	2.201	1.898	1.770	0.033	0.015	-0.022
0.015	19.125	-0.054	-0.083	0.164	0.146	0.725	0.465	0.667	2.198	1.895	1.773	0.033	0.015	-0.016
0.015	19.135	-0.054	-0.086	0.163	0.138	0.739	0.472	0.701	2.193	1.899	1.771	0.034	0.013	-0.013
0.015	19.131	-0.055	-0.089	0.157	0.129	0.756	0.458	0.708	2.163	1.897	1.773	0.034	0.014	-0.011
0.015	19.156	-0.059	-0.091	0.154	0.122	0.756	0.470	0.715	2.140	1.902	1.775	0.036	0.010	-0.008
0.015	19.135	-0.062	-0.095	0.151	0.116	0.744	0.453	0.726	2.185	1.894	1.773	0.035	0.008	-0.005
0.016	19.150	-0.064	-0.094	0.145	0.104	0.744	0.448	0.708	2.208	1.903	1.769	0.033	0.006	-0.003
0.016	19.131	-0.066	-0.095	0.143	0.096	0.753	0.431	0.703	2.218	1.896	1.776	0.033	0.004	-0.001
0.016	19.159	-0.066	-0.095	0.140	0.084	0.769	0.433	0.706	2.204	1.897	1.780	0.030	0.003	0.003
0.016	19.131	-0.071	-0.095	0.132	0.074	0.781	0.447	0.713	2.235	1.889	1.777	0.030	0.000	0.005
0.016	19.162	-0.070	-0.093	0.125	0.063	0.791	0.481	0.720	2.260	1.906	1.770	0.028	0.001	0.008
0.017	19.141	-0.069	-0.092	0.120	0.053	0.771	0.519	0.723	2.240	1.895	1.776	0.028	-0.002	0.010
0.017	19.150	-0.066	-0.089	0.114	0.044	0.744	0.543	0.710	2.231	1.900	1.778	0.024	0.000	0.012
0.017	19.156	-0.064	-0.084	0.106	0.035	0.719	0.543	0.675	2.199	1.903	1.777	0.025	-0.002	0.014
0.017	19.156	-0.062	-0.080	0.098	0.029	0.687	0.506	0.635	2.213	1.891	1.775	0.023	0.003	0.016
0.017	19.153	-0.063	-0.072	0.088	0.024	0.677	0.471	0.614	2.255	1.902	1.786	0.023	0.004	0.017
0.018	19.168	-0.064	-0.069	0.079	0.021	0.677	0.425	0.598	2.304	1.900	1.786	0.022	0.008	0.018
0.018	19.159	-0.065	-0.063	0.068	0.021	0.699	0.428	0.589	2.329	1.903	1.782	0.022	0.008	0.018
0.018	19.180	-0.067	-0.058	0.059	0.021	0.715	0.458	0.590	2.327	1.908	1.780	0.022	0.015	0.023
0.018	19.177	-0.068	-0.051	0.047	0.023	0.720	0.499	0.605	2.298	1.909	1.777	0.020	0.017	0.026
0.018	19.183	-0.069	-0.044	0.036	0.023	0.712	0.533	0.630	2.240	1.916	1.784	0.022	0.023	0.023
0.019	19.174	-0.066	-0.039	0.027	0.027	0.703	0.526	0.653	2.230	1.909	1.776	0.016	0.027	0.024
0.019	19.202	-0.066	-0.035	0.016	0.030	0.696	0.499	0.656	2.245	1.904	1.786	0.017	0.032	0.023
0.019	19.214	-0.063	-0.030	0.006	0.030	0.698	0.478	0.629	2.288	1.909	1.791	0.017	0.038	0.024
0.019	19.193	-0.060	-0.027	-0.001	0.032	0.699	0.488	0.614	2.318	1.912	1.786	0.016	0.038	0.023
0.019	19.199	-0.063	-0.027	-0.012	0.034	0.676	0.497	0.633	2.347	1.917	1.784	0.014	0.044	0.022
0.020	19.193	-0.060	-0.023	-0.020	0.032	0.695	0.553	0.628	2.296	1.914	1.791	0.008	0.040	0.024
0.020	19.196	-0.061	-0.024	-0.027	0.032	0.698	0.580	0.609	2.251	1.918	1.790	0.006	0.048	0.024
0.020	19.186	-0.061	-0.024	-0.034	0.031	0.720	0.605	0.614	2.199	1.914	1.790	0.002	0.046	0.022
0.020	19.183	-0.060	-0.025	-0.037	0.028	0.760	0.586	0.626	2.170	1.918	1.788	-0.002	0.049	0.022
0.020	19.202	-0.057	-0.024	-0.039	0.025	0.781	0.570	0.590	2.161	1.917	1.786	-0.008	0.045	0.022
0.021	19.193	-0.055	-0.024	-0.043	0.022	0.798	0.544	0.574	2.215	1.919	1.789	-0.011	0.043	0.023
0.021	19.208	-0.051	-0.026	-0.045	0.019	0.812	0.538	0.578	2.254	1.919	1.794	-0.017	0.040	0.022
0.021	19.211	-0.045	-0.029	-0.045	0.015	0.798	0.536	0.568	2.269	1.915	1.793	-0.020	0.038	0.022
0.021	19.217	-0.040	-0.030	-0.047	0.012	0.795	0.549	0.570	2.233	1.921	1.796	-0.023	0.033	0.022
0.021	19.214	-0.037	-0.030	-0.045	0.006	0.799	0.554	0.594	2.173	1.914	1.795	-0.030	0.028	0.018
0.022	19.241	-0.035	-0.036	-0.046	0.006	0.813	0.550	0.608	2.116	1.914	1.796	-0.032	0.024	0.017
0.022	19.217	-0.032	-0.037	-0.043	0.005	0.838	0.497	0.626	2.075	1.917	1.798	-0.037	0.020	0.015
0.022	19.226	-0.026	-0.040	-0.044	0.009	0.873	0.438	0.646	2.081	1.920	1.793	-0.041	0.013	0.014
0.022	19.217	-0.027	-0.041	-0.043	0.013	0.892	0.403	0.650	2.126	1.928	1.796	-0.044	0.009	0.014
0.022	19.223	-0.023	-0.043	-0.043	0.019	0.881	0.402	0.641	2.151	1.920	1.794	-0.045	0.006	0.011
0.023	19.223	-0.017	-0.041	-0.044	0.030	0.849	0.408	0.644	2.157	1.927	1.799	-0.048	0.003	0.012
0.023	19.217	-0.012	-0.041	-0.045	0.039	0.829	0.409	0.645	2.128	1.921	1.801	-0.049	0.000	0.010
0.023	19.232	-0.008	-0.041	-0.047	0.052	0.839	0.443	0.647	2.080	1.921	1.804	-0.051	-0.002	0.011
0.023	19.220	-0.007	-0.038	-0.050	0.066	0.859	0.429	0.656	2.013	1.926	1.807	-0.051	-0.004	0.012
0.023	19.241	-0.004	-0.035	-0.050	0.080	0.896	0.380	0.669	2.009	1.929	1.806	-0.051	-0.003	0.013
0.024	19.235	-0.001	-0.032	-0.049	0.097	0.921	0.351	0.670	1.999	1.930	1.810	-0.051	-0.003	0.016
0.024	19.229	-0.001	-0.030	-0.050	0.114	0.925	0.312	0.652	2.033	1.932	1.805	-0.052	-0.002	0.018
0.024	19.238	-0.001	-0.027	-0.050	0.129	0.895	0.318	0.625	2.074	1.931	1.814	-0.052	-0.001	0.019
0.024	19.232	0.003	-0.026	-0.050	0.146	0.866	0.304	0.601	2.092	1.936	1.803	-0.052	0.002	0.026
0.024	19.244	0.006	-0.021	-0.050	0.161	0.860	0.317	0.598	2.078	1.931	1.807	-0.050	0.005	0.029
0.025	19.235	0.008	-0.022	-0.047	0.174	0.849	0.311	0.609	2.026	1.940	1.807	-0.051	0.008	0.037
0.025	19.241	0.011	-0.018	-0.042	0.191	0.848	0.303	0.632	1.967	1.934	1.807	-0.050	0.011	0.042
0.025	19.254	0.013	-0.016	-0.035	0.203	0.856	0.294	0.659	1.899	1.930	1.808	-0.050	0.015	0.052
0.025	19.254	0.014	-0.017	-0.025	0.217	0.834	0.239	0.688	1.917	1.934	1.816	-0.050	0.019	0.060
0.025	19.247	0.012	-0.012	-0.014	0.227	0.808	0.223	0.675	1.968	1.935	1.813	-0.048	0.022	0.068
0.026	19.254	0.009	-0.014	0.000	0.239	0.772	0.209	0.644	2.031	1.937	1.817	-0.049	0.026	0.077
0.026	19.244	0.008	-0.015	0.015	0.248	0.752	0.243	0.573	2.068	1.950	1.821	-0.048	0.030	0.086
0.026	19.263	0.009	-0.018	0.033	0.257	0.754	0.276	0.546	2.035	1.950	1.819	-0.048	0.030	0.094
0.026	19.247	0.008	-0.022	0.052	0.266	0.744	0.265	0.573	1.965	1.954	1.819	-0.047	0.033	0.104
0.026	19.244	0.010	-0.026	0.073	0.273	0.762	0.283	0.625	1.866	1.959	1.822	-0.046	0.033	0.111
0.027	19.254	0.013	-0.031	0.095	0.283	0.795	0.274	0.686	1.796	1.950	1.826	-0.045	0.035	0.121
0.027	19.257	0.015	-0.038	0.118	0.291	0.813	0.263	0.704	1.790	1.947	1.823	-0.045	0.035	0.128
0.027	19.247	0.012	-0.041	0.140	0.299	0.812	0.277	0.711	1.818	1.952	1.824	-0.046	0.037	0.134
0.027	19.263	0.013	-0.048	0.161	0.308	0.790	0.280	0.671	1.860	1.952	1.828	-0.046	0.035	0.140
0.027	19.269	0.008	-0.052	0.181	0.318	0.751	0.304	0.639	1.895	1.955	1.825	-0.045	0.035	0.144
0.028	19.260	0.003	-0.056	0.198	0.325	0.723	0.326	0.617	1.898	1.957	1.825	-0.045	0.033	0.146
0.028	19.238	0.004	-0.059	0.216	0.337	0.714	0.343	0.666	1.831	1.954	1.823	-0.045	0.031	0.147
0.028	19.290	0.003	-0.062	0.231	0.347	0.730	0.340	0.735	1.756	1.955	1.824	-0.045	0.029	0.149
0.028	19.269	0.005	-0.066	0.244	0.360	0.729	0.343	0.795	1.710	1.964	1.825	-0.045	0.026	0.147
0.028	19.275	0.007	-0.066	0.253	0.371	0.771	0.349	0.813	1.689	1.959	1.837	-0.044	0.026	0.142
0.029	19.269	0.010	-0.069	0.261	0.383	0.807	0.366	0.790	1.697	1.962	1.833	-0.044	0.024	0.142
0.029	19.293	0.013	-0.069	0.266	0.394	0.829	0.386	0.741	1.747	1.966	1.835	-0.046	0.023	0.135
0.029	19.278	0.008	-0.072	0.268	0.406	0.832	0.404	0.684	1.791	1.958	1.838	-0.045	0.024	0.129
0.029	19.305	0.007	-0.073	0.272	0.416	0.829	0.413	0.659	1.785	1.957	1.840	-0.043	0.021	0.124
0.029	19.284	0.003	-0.073	0.270	0.427	0.804	0.401	0.662	1.724	1.964	1.840	-0.048	0.023	0.118
0.030	19.293	-0.005	-0.075	0.268	0.437	0.755	0.390	0.708	1.690	1.965	1.838	-0.046	0.023	0.112
0.030	19.287	-0.003	-0.074	0.262	0.446	0.788	0.392	0.749	1.657	1.970	1.839	-0.048	0.023	0.106
0.030	19.315	-0.004	-0.076	0.258	0.452	0.807	0.384	0.801	1.628	1.962	1.839	-0.048	0.025	0.100
0.030	19.293	-0.001	-0.073	0.253	0.458	0.865	0.392	0.832	1.657	1.969	1.836	-0.048	0.027	0.095
0.030	19.305	0.001	-0.074	0.246	0.459	0.893	0.380	0.826	1.698	1.963	1.837	-0.052	0.030	0.091
0.031	19.287	0.002	-0.073	0.236	0.460	0.888	0.384	0.786	1.721	1.975	1.847	-0.050	0.033	0.086
0.031	19.312	0.002	-0.072	0.229	0.458	0.861	0.365	0.761	1.694	1.967	1.837	-0.053	0.040	0.082
0.031	19.290	0.000	-0.072	0.225	0.450	0.834	0.340	0.787	1.636	1.964	1.842	-0.053	0.041	0.080
0.031	19.299	-0.002	-0.074	0.215	0.444	0.791	0.314	0.832	1.545	1.971	1.860	-0.055	0.044	0.078
0.031	19.315	-0.006	-0.072	0.208	0.434	0.791	0.270	0.859	1.476	1.970	1.852	-0.058	0.048	0.077
0.032	19.315	-0.007	-0.075	0.203	0.423	0.812	0.251	0.847	1.446	1.968	1.847	-0.058	0.052	0.076
0.032	19.302	-0.009	-0.074	0.197	0.410	0.822	0.253	0.876	1.476	1.972	1.847	-0.062	0.055	0.081
0.032	19.318	-0.009	-0.075	0.192	0.391	0.820	0.255	0.873	1.499	1.976	1.849	-0.063	0.057	0.082
0.032	19.318	-0.003	-0.071	0.187	0.374	0.827	0.240	0.834	1.543	1.985	1.850	-0.068	0.060	0.086
0.032	19.305	-0.001	-0.066	0.181	0.356	0.840	0.235	0.795	1.525	1.985	1.858	-0.067	0.065	0.088
0.033	19.308	0.001	-0.064	0.178	0.337	0.820	0.215	0.786	1.510	1.976	1.861	-0.072	0.065	0.092
0.033	19.318	0.002	-0.059	0.175	0.321	0.833	0.180	0.819	1.464	1.976	1.857	-0.072	0.066	0.098
0.033	19.351	-0.001	-0.053	0.170	0.305	0.836	0.147	0.846	1.402	1.984	1.858	-0.074	0.068	0.102
0.033	19.312	-0.004	-0.051	0.165	0.290	0.840	0.140	0.895	1.379	1.977	1.855	-0.078	0.070	0.105
0.033	19.333	-0.007	-0.049	0.157	0.278	0.848	0.116	0.871	1.389	1.984	1.860	-0.079	0.069	0.109
0.034	19.333	-0.010	-0.045	0.148	0.267	0.852	0.114	0.825	1.433	1.991	1.861	-0.083	0.069	0.112
0.034	19.330	-0.009	-0.047	0.138	0.259	0.872	0.099	0.783	1.469	1.990	1.864	-0.084	0.068	0.117
0.034	19.351	-0.008	-0.045	0.125	0.253	0.886	0.117	0.743	1.503	1.989	1.863	-0.087	0.068	0.118
0.034	19.330	-0.006	-0.046	0.115	0.249	0.895	0.114	0.729	1.519	1.980	1.860	-0.090	0.068	0.121
0.034	19.342	-0.004	-0.044	0.102	0.247	0.907	0.137	0.769	1.447	1.988	1.869	-0.094	0.067	0.122
0.035	19.339	-0.005	-0.044	0.087	0.245	0.882	0.154	0.813	1.361	1.991	1.866	-0.094	0.066	0.122
0.035	19.354	-0.006	-0.044	0.073	0.245	0.869	0.177	0.863	1.344	1.990	1.865	-0.099	0.063	0.123
0.035	19.339	-0.012	-0.043	0.057	0.247	0.853	0.195	0.850	1.343	1.991	1.877	-0.101	0.061	0.123
0.035	19.348	-0.014	-0.043	0.042	0.247	0.868	0.173	0.817	1.387	1.990	1.869	-0.106	0.060	0.120
0.035	19.342	-0.013	-0.042	0.030	0.247	0.884	0.144	0.752	1.435	1.996	1.865	-0.109	0.058	0.116
0.036	19.370	-0.013	-0.041	0.015	0.243	0.883	0.146	0.731	1.428	2.001	1.876	-0.111	0.055	0.113
0.036	19.342	-0.010	-0.042	0.002	0.241	0.882	0.150	0.753	1.375	1.993	1.879	-0.114	0.053	0.113
0.036	19.357	-0.009	-0.046	-0.011	0.232	0.875	0.189	0.815	1.294	1.991	1.877	-0.115	0.051	0.110
0.036	19.342	-0.002	-0.046	-0.023	0.223	0.883	0.230	0.866	1.181	1.995	1.877	-0.120	0.052	0.108
0.036	19.342	-0.001	-0.050	-0.033	0.211	0.868	0.264	0.881	1.144	1.989	1.883	-0.122	0.047	0.105
0.037	19.342	0.000	-0.051	-0.042	0.195	0.857	0.252	0.821	1.175	1.994	1.878	-0.124	0.044	0.104
0.037	19.345	-0.001	-0.054	-0.049	0.180	0.866	0.264	0.748	1.270	2.003	1.889	-0.128	0.043	0.099
0.037	19.339	-0.002	-0.056	-0.058	0.162	0.837	0.232	0.690	1.361	1.998	1.887	-0.127	0.041	0.099
0.037	19.342	-0.002	-0.058	-0.062	0.145	0.833	0.242	0.652	1.372	2.005	1.890	-0.128	0.038	0.095
0.037	19.315	-0.000	-0.061	-0.065	0.128	0.849	0.256	0.654	1.355	2.003	1.891	-0.130	0.034	0.095
0.038	19.318	0.004	-0.062	-0.069	0.112	0.865	0.281	0.698	1.258	1.998	1.898	-0.131	0.034	0.093
0.038	19.315	0.009	-0.066	-0.069	0.094	0.841	0.305	0.757	1.187	2.004	1.891	-0.131	0.033	0.092
0.038	19.339	0.016	-0.067	-0.070	0.078	0.827	0.303	0.768	1.096	2.006	1.889	-0.131	0.032	0.093
0.038	19.324	0.020	-0.069	-0.069	0.065	0.824	0.287	0.774	1.093	1.999	1.886	-0.130	0.027	0.090
0.038	19.342	0.021	-0.072	-0.067	0.055	0.810	0.277	0.713	1.153	1.999	1.884	-0.130	0.023	0.096
0.039	19.315	0.019	-0.075	-0.064	0.041	0.784	0.289	0.664	1.198	2.009	1.889	-0.126	0.020	0.099
0.039	19.339	0.017	-0.078	-0.058	0.036	0.769	0.310	0.637	1.204	2.005	1.893	-0.124	0.017	0.098
0.039	19.308	0.015	-0.080	-0.051	0.030	0.765	0.344	0.643	1.155	2.002	1.891	-0.124	0.013	0.100
0.039	19.363	0.013	-0.083	-0.044	0.026	0.751	0.387	0.694	1.093	2.012	1.893	-0.119	0.011	0.102
0.039	19.318	0.017	-0.081	-0.039	0.020	0.753	0.437	0.742	1.021	2.010	1.894	-0.114	0.005	0.105
0.040	19.312	0.021	-0.082	-0.032	0.022	0.757	0.421	0.724	0.991	2.018	1.891	-0.113	0.002	0.104
0.040	19.315	0.025	-0.080	-0.022	0.023	0.751	0.410	0.687	1.028	2.009	1.896	-0.104	-0.004	0.109
0.040	19.330	0.030	-0.078	-0.015	0.026	0.774	0.375	0.637	1.088	2.022	1.898	-0.103	-0.011	0.111
0.040	19.315	0.031	-0.077	-0.005	0.024	0.784	0.354	0.580	1.118	2.021	1.894	-0.097	-0.011	0.115
0.040	19.312	0.032	-0.076	0.005	0.032	0.813	0.353	0.582	1.065	2.021	1.900	-0.092	-0.016	0.118
0.041	19.308	0.026	-0.074	0.014	0.043	0.817	0.369	0.618	1.033	2.011	1.895	-0.087	-0.020	0.116
0.041	19.318	0.023	-0.075	0.023	0.045	0.833	0.400	0.696	0.966	2.027	1.896	-0.081	-0.023	0.117
0.041	19.333	0.019	-0.075	0.032	0.052	0.815	0.385	0.769	0.924	2.024	1.902	-0.076	-0.029	0.119
0.041	19.302	0.015	-0.076	0.040	0.059	0.811	0.384	0.795	0.951	2.017	1.899	-0.071	-0.032	0.119
0.041	19.324	0.015	-0.079	0.050	0.066	0.796	0.361	0.769	0.955	2.022	1.899	-0.066	-0.036	0.121
0.042	19.299	0.014	-0.079	0.058	0.077	0.792	0.354	0.704	1.006	2.022	1.902	-0.060	-0.040	0.120
0.042	19.333	0.015	-0.082	0.070	0.086	0.812	0.350	0.648	1.066	2.021	1.904	-0.056	-0.043	0.122
0.042	19.321	0.013	-0.083	0.079	0.099	0.832	0.352	0.629	1.033	2.020	1.904	-0.050	-0.046	0.121
0.042	19.324	0.010	-0.084	0.087	0.111	0.852	0.363	0.654	0.996	2.033	1.906	-0.045	-0.049	0.122
0.042	19.330	0.009	-0.087	0.100	0.123	0.884	0.373	0.677	0.902	2.024	1.907	-0.042	-0.052	0.120
0.043	19.318	0.001	-0.089	0.108	0.136	0.887	0.357	0.701	0.862	2.028	1.916	-0.037	-0.055	0.119
0.043	19.321	-0.004	-0.091	0.118	0.150	0.916	0.365	0.662	0.807	2.033	1.911	-0.034	-0.056	0.119
0.043	19.315	-0.007	-0.096	0.130	0.164	0.919	0.341	0.610	0.832	2.031	1.919	-0.028	-0.058	0.118
0.043	19.327	-0.010	-0.098	0.139	0.178	0.949	0.346	0.524	0.886	2.037	1.917	-0.027	-0.059	0.116
0.043	19.321	-0.012	-0.100	0.153	0.191	0.984	0.353	0.462	0.896	2.042	1.914	-0.023	-0.061	0.117
0.044	19.333	-0.014	-0.102	0.166	0.205	1.018	0.366	0.456	0.921	2.039	1.915	-0.022	-0.061	0.119
0.044	19.321	-0.015	-0.105	0.176	0.220	1.046	0.369	0.482	0.865	2.034	1.915	-0.020	-0.065	0.119
0.044	19.315	-0.018	-0.107	0.186	0.229	1.058	0.374	0.544	0.788	2.024	1.919	-0.016	-0.063	0.119
0.044	19.318	-0.025	-0.109	0.202	0.241	1.058	0.356	0.579	0.716	2.029	1.922	-0.016	-0.063	0.121
0.044	19.333	-0.031	-0.111	0.215	0.255	1.054	0.330	0.566	0.675	2.041	1.918	-0.011	-0.065	0.121
0.045	19.330	-0.039	-0.112	0.224	0.266	1.050	0.305	0.519	0.695	2.036	1.918	-0.010	-0.064	0.123
0.045	19.327	-0.044	-0.113	0.234	0.277	1.060	0.296	0.468	0.754	2.053	1.929	-0.009	-0.065	0.124
0.045	19.302	-0.049	-0.113	0.244	0.288	1.051	0.287	0.426	0.792	2.043	1.926	-0.008	-0.065	0.126
0.045	19.330	-0.047	-0.114	0.253	0.297	1.046	0.300	0.419	0.832	2.046	1.927	-0.007	-0.063	0.128
0.045	19.308	-0.047	-0.116	0.260	0.306	1.057	0.272	0.434	0.791	2.055	1.929	-0.007	-0.063	0.133
0.046	19.299	-0.046	-0.118	0.266	0.312	1.056	0.306	0.473	0.737	2.047	1.926	-0.005	-0.063	0.135
0.046	19.299	-0.046	-0.116	0.274	0.317	1.076	0.326	0.510	0.682	2.053	1.927	-0.005	-0.061	0.138
0.046	19.302	-0.049	-0.116	0.276	0.320	1.090	0.307	0.487	0.640	2.044	1.926	-0.007	-0.060	0.139
0.046	19.308	-0.054	-0.117	0.280	0.321	1.119	0.331	0.414	0.689	2.048	1.932	-0.004	-0.057	0.141
0.046	19.324	-0.061	-0.116	0.284	0.321	1.151	0.360	0.372	0.695	2.053	1.928	-0.004	-0.053	0.141
0.047	19.296	-0.066	-0.115	0.286	0.317	1.164	0.366	0.338	0.756	2.058	1.927	-0.006	-0.049	0.143
0.047	19.321	-0.069	-0.112	0.286	0.316	1.163	0.398	0.326	0.779	2.059	1.931	-0.003	-0.045	0.142
0.047	19.324	-0.069	-0.110	0.286	0.311	1.165	0.416	0.372	0.743	2.065	1.937	-0.007	-0.041	0.143
0.047	19.333	-0.070	-0.108	0.284	0.306	1.132	0.450	0.415	0.680	2.065	1.932	-0.012	-0.036	0.141
0.047	19.321	-0.066	-0.105	0.283	0.299	1.101	0.470	0.425	0.640	2.059	1.934	-0.013	-0.032	0.141
0.048	19.333	-0.063	-0.102	0.281	0.294	1.100	0.468	0.405	0.623	2.058	1.937	-0.018	-0.026	0.140
0.048	19.321	-0.064	-0.099	0.278	0.289	1.099	0.518	0.326	0.665	2.063	1.934	-0.020	-0.022	0.138
0.048	19.315	-0.070	-0.096	0.275	0.284	1.124	0.550	0.247	0.723	2.061	1.935	-0.026	-0.016	0.137
0.048	19.315	-0.073	-0.092	0.271	0.279	1.132	0.558	0.225	0.772	2.057	1.939	-0.029	-0.011	0.133
0.048	19.336	-0.077	-0.088	0.265	0.274	1.159	0.561	0.247	0.768	2.061	1.935	-0.033	-0.007	0.130
0.049	19.315	-0.083	-0.084	0.260	0.272	1.187	0.556	0.337	0.754	2.072	1.935	-0.038	-0.003	0.126
0.049	19.363	-0.082	-0.082	0.255	0.269	1.164	0.559	0.400	0.707	2.067	1.945	-0.041	0.002	0.124
0.049	19.321	-0.079	-0.079	0.248	0.270	1.140	0.587	0.402	0.710	2.068	1.939	-0.046	0.005	0.120
0.049	19.318	-0.074	-0.076	0.241	0.269	1.148	0.575	0.366	0.726	2.070	1.938	-0.052	0.011	0.119
0.049	19.327	-0.073	-0.072	0.232	0.267	1.119	0.584	0.306	0.736	2.065	1.946	-0.052	0.013	0.114
0.050	19.336	-0.070	-0.069	0.225	0.270	1.138	0.593	0.268	0.774	2.060	1.947	-0.058	0.016	0.115
0.050	19.342	-0.072	-0.067	0.218	0.270	1.151	0.597	0.241	0.788	2.065	1.947	-0.062	0.020	0.111
0.050	19.345	-0.075	-0.064	0.211	0.273	1.174	0.616	0.283	0.763	2.069	1.943	-0.066	0.020	0.112
0.050	19.324	-0.076	-0.061	0.204	0.274	1.220	0.629	0.329	0.723	2.077	1.941	-0.070	0.024	0.111
0.050	19.324	-0.079	-0.060	0.196	0.274	1.198	0.652	0.338	0.692	2.072	1.942	-0.070	0.023	0.111
0.051	19.321	-0.077	-0.060	0.190	0.278	1.197	0.662	0.320	0.703	2.066	1.947	-0.072	0.026	0.114
0.051	19.351	-0.074	-0.060	0.181	0.276	1.161	0.676	0.242	0.715	2.077	1.948	-0.073	0.026	0.114
0.051	19.336	-0.068	-0.062	0.174	0.277	1.151	0.679	0.165	0.738	2.072	1.947	-0.075	0.026	0.121
0.051	19.333	-0.064	-0.061	0.162	0.274	1.147	0.664	0.083	0.737	2.075	1.948	-0.076	0.027	0.119
0.051	19.333	-0.059	-0.061	0.156	0.269	1.145	0.657	0.069	0.742	2.071	1.945	-0.077	0.027	0.127
0.052	19.318	-0.058	-0.061	0.145	0.270	1.193	0.639	0.076	0.744	2.071	1.952	-0.078	0.027	0.129
0.052	19.354	-0.057	-0.062	0.136	0.267	1.225	0.627	0.095	0.714	2.075	1.942	-0.078	0.026	0.136
0.052	19.351	-0.055	-0.061	0.126	0.263	1.233	0.616	0.106	0.675	2.076	1.959	-0.079	0.024	0.140
0.052	19.336	-0.058	-0.060	0.115	0.258	1.192	0.617	0.074	0.641	2.076	1.950	-0.078	0.024	0.144
0.052	19.330	-0.054	-0.059	0.105	0.254	1.179	0.625	0.051	0.592	2.073	1.958	-0.079	0.019	0.150
0.053	19.339	-0.050	-0.058	0.097	0.248	1.152	0.618	0.012	0.560	2.071	1.947	-0.079	0.018	0.152
0.053	19.336	-0.044	-0.057	0.088	0.240	1.163	0.605	-0.016	0.535	2.083	1.950	-0.078	0.015	0.156
0.053	19.312	-0.038	-0.056	0.083	0.236	1.174	0.592	-0.025	0.589	2.081	1.957	-0.077	0.010	0.161
0.053	19.330	-0.034	-0.057	0.075	0.230	1.202	0.586	0.033	0.614	2.079	1.955	-0.076	0.005	0.165
0.053	19.324	-0.032	-0.055	0.072	0.222	1.198	0.586	0.063	0.658	2.085	1.954	-0.074	0.000	0.166
0.054	19.315	-0.030	-0.057	0.069	0.215	1.179	0.595	0.080	0.669	2.086	1.948	-0.073	-0.003	0.172
0.054	19.321	-0.031	-0.055	0.067	0.209	1.175	0.593	0.076	0.646	2.087	1.960	-0.071	-0.009	0.171
0.054	19.308	-0.031	-0.055	0.066	0.204	1.168	0.585	0.051	0.561	2.089	1.960	-0.068	-0.012	0.170
0.054	19.287	-0.029	-0.053	0.068	0.195	1.190	0.571	0.014	0.559	2.085	1.961	-0.065	-0.017	0.170
0.054	19.293	-0.025	-0.053	0.070	0.191	1.202	0.555	-0.011	0.554	2.086	1.967	-0.059	-0.023	0.167
0.055	19.296	-0.020	-0.051	0.071	0.186	1.220	0.560	0.016	0.601	2.083	1.952	-0.060	-0.026	0.164
0.055	19.281	-0.015	-0.049	0.072	0.182	1.222	0.567	0.023	0.642	2.082	1.961	-0.053	-0.031	0.161
0.055	19.293	-0.009	-0.046	0.074	0.179	1.239	0.566	0.022	0.683	2.078	1.961	-0.050	-0.035	0.159
0.055	19.290	-0.009	-0.042	0.079	0.176	1.229	0.574	-0.012	0.682	2.082	1.966	-0.045	-0.041	0.154
0.055	19.315	-0.010	-0.042	0.084	0.174	1.201	0.558	-0.043	0.665	2.084	1.964	-0.043	-0.046	0.151
0.056	19.284	-0.014	-0.042	0.087	0.173	1.201	0.531	-0.060	0.605	2.079	1.963	-0.039	-0.049	0.148
0.056	19.305	-0.018	-0.042	0.091	0.172	1.189	0.522	-0.078	0.595	2.078	1.959	-0.033	-0.050	0.143
0.056	19.305	-0.021	-0.045	0.096	0.173	1.203	0.506	-0.092	0.610	2.088	1.964	-0.028	-0.055	0.139
0.056	19.302	-0.023	-0.050	0.104	0.174	1.212	0.496	-0.108	0.675	2.088	1.971	-0.026	-0.060	0.137
0.056	19.299	-0.022	-0.053	0.107	0.177	1.211	0.518	-0.101	0.711	2.096	1.967	-0.023	-0.061	0.133
0.057	19.287	-0.019	-0.056	0.112	0.181	1.209	0.541	-0.059	0.754	2.090	1.970	-0.020	-0.068	0.131
0.057	19.305	-0.015	-0.060	0.118	0.184	1.204	0.591	-0.025	0.756	2.097	1.973	-0.018	-0.072	0.128
0.057	19.281	-0.012	-0.061	0.124	0.190	1.186	0.616	-0.052	0.759	2.095	1.970	-0.016	-0.076	0.128
0.057	19.293	-0.013	-0.065	0.132	0.194	1.209	0.607	-0.111	0.769	2.086	1.968	-0.015	-0.080	0.123
0.057	19.293	-0.019	-0.068	0.140	0.198	1.231	0.608	-0.159	0.769	2.094	1.968	-0.012	-0.084	0.120
0.058	19.287	-0.024	-0.072	0.147	0.204	1.246	0.583	-0.166	0.791	2.092	1.970	-0.010	-0.088	0.119
0.058	19.281	-0.030	-0.073	0.154	0.207	1.259	0.575	-0.129	0.811	2.092	1.972	-0.008	-0.093	0.117
0.058	19.278	-0.035	-0.077	0.163	0.213	1.237	0.573	-0.060	0.821	2.087	1.967	-0.010	-0.096	0.117
0.058	19.278	-0.037	-0.078	0.168	0.215	1.216	0.591	-0.023	0.847	2.095	1.976	-0.010	-0.098	0.114
0.058	19.281	-0.038	-0.084	0.176	0.218	1.199	0.586	-0.019	0.839	2.093	1.979	-0.010	-0.099	0.111
0.059	19.269	-0.036	-0.083	0.182	0.220	1.176	0.633	-0.094	0.817	2.085	1.970	-0.011	-0.105	0.107
0.059	19.290	-0.037	-0.088	0.187	0.220	1.180	0.644	-0.157	0.824	2.097	1.975	-0.012	-0.107	0.109
0.059	19.260	-0.038	-0.088	0.193	0.219	1.192	0.643	-0.210	0.844	2.102	1.967	-0.013	-0.109	0.108
0.059	19.254	-0.042	-0.088	0.197	0.219	1.208	0.690	-0.203	0.865	2.095	1.971	-0.013	-0.112	0.105
0.059	19.244	-0.048	-0.090	0.205	0.217	1.228	0.671	-0.158	0.851	2.098	1.964	-0.018	-0.111	0.103
0.060	19.266	-0.054	-0.089	0.209	0.216	1.216	0.683	-0.104	0.840	2.099	1.976	-0.014	-0.114	0.100
0.060	19.260	-0.060	-0.091	0.215	0.213	1.209	0.681	-0.062	0.861	2.095	1.976	-0.022	-0.113	0.100
0.060	19.272	-0.065	-0.091	0.219	0.214	1.167	0.693	-0.083	0.904	2.102	1.977	-0.018	-0.112	0.097
0.060	19.260	-0.065	-0.092	0.223	0.214	1.157	0.702	-0.161	0.944	2.107	1.970	-0.019	-0.113	0.096
0.060	19.263	-0.067	-0.090	0.228	0.211	1.167	0.738	-0.199	0.989	2.108	1.978	-0.019	-0.113	0.094
0.061	19.260	-0.067	-0.091	0.234	0.210	1.193	0.784	-0.214	0.989	2.096	1.980	-0.025	-0.110	0.094
0.061	19.257	-0.067	-0.092	0.238	0.206	1.215	0.775	-0.174	0.926	2.103	1.977	-0.026	-0.107	0.092
0.061	19.254	-0.066	-0.092	0.243	0.207	1.228	0.777	-0.090	0.919	2.098	1.981	-0.028	-0.105	0.090
0.061	19.263	-0.071	-0.094	0.248	0.206	1.207	0.799	-0.023	0.874	2.108	1.974	-0.030	-0.101	0.091
0.061	19.254	-0.077	-0.095	0.253	0.205	1.165	0.832	0.004	0.928	2.111	1.980	-0.032	-0.097	0.092
0.062	19.272	-0.079	-0.094	0.256	0.204	1.135	0.814	-0.027	0.967	2.112	1.978	-0.035	-0.092	0.092
0.062	19.244	-0.083	-0.093	0.259	0.203	1.141	0.803	-0.083	0.969	2.110	1.975	-0.037	-0.089	0.094
0.062	19.284	-0.086	-0.092	0.265	0.203	1.187	0.813	-0.146	0.986	2.112	1.983	-0.038	-0.084	0.095
0.062	19.250	-0.088	-0.089	0.268	0.202	1.231	0.791	-0.128	0.967	2.111	1.983	-0.043	-0.079	0.097
0.062	19.281	-0.087	-0.088	0.271	0.203	1.251	0.768	-0.081	0.940	2.102	1.979	-0.046	-0.073	0.097
0.063	19.278	-0.082	-0.083	0.272	0.203	1.250	0.764	0.021	0.932	2.113	1.978	-0.047	-0.067	0.101
0.063	19.272	-0.082	-0.083	0.273	0.205	1.212	0.744	0.062	0.966	2.120	1.975	-0.048	-0.061	0.102
0.063	19.257	-0.082	-0.078	0.272	0.205	1.156	0.753	0.084	0.997	2.113	1.975	-0.051	-0.055	0.104
0.063	19.263	-0.084	-0.077	0.270	0.205	1.141	0.754	0.027	1.054	2.113	1.981	-0.053	-0.049	0.108
0.063	19.260	-0.086	-0.074	0.267	0.206	1.125	0.764	-0.039	1.087	2.107	1.985	-0.056	-0.041	0.109
0.064	19.254	-0.091	-0.072	0.263	0.204	1.168	0.768	-0.086	1.055	2.100	1.988	-0.058	-0.037	0.112
0.064	19.260	-0.094	-0.074	0.258	0.208	1.208	0.743	-0.071	1.022	2.115	1.980	-0.061	-0.031	0.115
0.064	19.284	-0.097	-0.074	0.250	0.207	1.250	0.719	-0.024	0.958	2.112	1.989	-0.063	-0.026	0.119
0.064	19.266	-0.096	-0.075	0.242	0.206	1.274	0.690	0.047	0.921	2.103	1.986	-0.066	-0.021	0.124
0.064	19.250	-0.095	-0.075	0.230	0.206	1.271	0.711	0.049	0.924	2.119	1.983	-0.069	-0.015	0.126
0.065	19.247	-0.094	-0.075	0.220	0.206	1.236	0.737	0.035	0.950	2.116	1.979	-0.073	-0.012	0.130
0.065	19.263	-0.094	-0.075	0.208	0.206	1.209	0.791	-0.075	1.021	2.116	1.991	-0.072	-0.007	0.132
0.065	19.241	-0.094	-0.075	0.195	0.207	1.204	0.843	-0.179	1.067	2.113	1.976	-0.076	-0.007	0.137
0.065	19.232	-0.094	-0.074	0.179	0.207	1.247	0.851	-0.180	1.072	2.122	1.987	-0.078	-0.003	0.138
0.065	19.247	-0.097	-0.071	0.165	0.213	1.275	0.845	-0.160	1.037	2.123	1.987	-0.080	0.001	0.142
0.066	19.214	-0.094	-0.071	0.149	0.211	1.308	0.840	-0.092	0.984	2.125	1.981	-0.082	0.002	0.142
0.066	19.250	-0.092	-0.070	0.134	0.211	1.310	0.824	-0.041	0.959	2.113	1.986	-0.083	0.003	0.147
0.066	19.260	-0.086	-0.068	0.119	0.213	1.290	0.831	-0.044	0.950	2.120	1.992	-0.086	0.004	0.146
0.066	19.238	-0.081	-0.066	0.106	0.211	1.268	0.849	-0.052	0.998	2.120	1.990	-0.089	0.007	0.150
0.066	19.232	-0.072	-0.065	0.092	0.213	1.252	0.853	-0.120	1.077	2.121	1.986	-0.088	0.007	0.149
0.067	19.229	-0.065	-0.062	0.078	0.210	1.257	0.889	-0.225	1.131	2.127	1.992	-0.089	0.008	0.148
0.067	19.223	-0.061	-0.060	0.071	0.210	1.299	0.880	-0.249	1.155	2.123	1.980	-0.091	0.008	0.148
0.067	19.220	-0.057	-0.058	0.059	0.205	1.310	0.872	-0.216	1.112	2.118	1.980	-0.091	0.011	0.148
0.067	19.217	-0.055	-0.057	0.052	0.204	1.293	0.871	-0.110	1.055	2.119	1.987	-0.092	0.010	0.151
0.067	19.229	-0.053	-0.053	0.043	0.201	1.276	0.832	-0.021	1.011	2.119	1.985	-0.092	0.013	0.147
0.068	19.232	-0.051	-0.050	0.040	0.197	1.228	0.826	0.025	1.007	2.125	1.989	-0.093	0.013	0.149
0.068	19.238	-0.047	-0.048	0.036	0.192	1.219	0.816	-0.011	1.068	2.130	1.987	-0.093	0.013	0.146
0.068	19.238	-0.044	-0.047	0.035	0.188	1.223	0.822	-0.075	1.175	2.123	1.985	-0.094	0.014	0.146
0.068	19.229	-0.035	-0.048	0.035	0.185	1.256	0.824	-0.135	1.207	2.115	1.986	-0.093	0.014	0.146
0.068	19.232	-0.030	-0.050	0.038	0.177	1.288	0.810	-0.166	1.192	2.120	1.983	-0.094	0.014	0.147
0.069	19.232	-0.024	-0.051	0.038	0.173	1.287	0.804	-0.122	1.198	2.119	1.989	-0.092	0.012	0.146
0.069	19.229	-0.020	-0.051	0.039	0.168	1.280	0.813	-0.040	1.187	2.120	1.986	-0.095	0.012	0.146
0.069	19.260	-0.019	-0.056	0.044	0.165	1.233	0.802	0.033	1.149	2.121	1.983	-0.095	0.010	0.148
0.069	19.241	-0.016	-0.056	0.050	0.162	1.203	0.814	0.068	1.156	2.128	1.983	-0.094	0.008	0.146
0.069	19.232	-0.013	-0.060	0.055	0.160	1.198	0.838	0.076	1.177	2.116	1.985	-0.097	0.004	0.146
0.070	19.247	-0.010	-0.062	0.058	0.160	1.203	0.803	0.011	1.210	2.121	1.984	-0.094	0.002	0.149
0.070	19.254	-0.006	-0.062	0.064	0.158	1.243	0.799	-0.089	1.238	2.119	1.995	-0.094	0.000	0.150
0.070	19.250	-0.001	-0.064	0.072	0.161	1.260	0.785	-0.102	1.289	2.108	1.984	-0.094	-0.006	0.150
0.070	19.281	0.000	-0.065	0.076	0.163	1.273	0.771	-0.049	1.280	2.116	1.991	-0.094	-0.012	0.150
0.070	19.244	0.004	-0.066	0.083	0.167	1.275	0.749	0.023	1.247	2.115	1.987	-0.094	-0.016	0.151
0.071	19.254	0.005	-0.066	0.086	0.173	1.266	0.722	0.092	1.195	2.124	1.980	-0.093	-0.022	0.151
0.071	19.247	0.006	-0.069	0.091	0.180	1.249	0.718	0.149	1.178	2.121	1.985	-0.093	-0.026	0.151
0.071	19.244	0.003	-0.072	0.093	0.190	1.260	0.695	0.154	1.161	2.122	1.990	-0.090	-0.035	0.149
0.071	19.247	0.003	-0.070	0.097	0.198	1.280	0.679	0.089	1.175	2.120	1.992	-0.091	-0.040	0.149
0.071	19.247	0.003	-0.070	0.100	0.208	1.302	0.678	0.037	1.200	2.120	1.998	-0.086	-0.047	0.149
0.072	19.260	0.003	-0.073	0.105	0.221	1.314	0.659	0.050	1.248	2.118	1.987	-0.085	-0.051	0.146
0.072	19.269	0.005	-0.076	0.108	0.233	1.316	0.655	0.073	1.256	2.121	1.992	-0.082	-0.058	0.144
0.072	19.260	0.006	-0.072	0.114	0.245	1.301	0.641	0.144	1.203	2.115	1.983	-0.077	-0.064	0.143
0.072	19.232	0.009	-0.070	0.118	0.257	1.299	0.656	0.169	1.169	2.121	1.987	-0.076	-0.067	0.141
0.072	19.244	0.007	-0.071	0.123	0.269	1.295	0.676	0.153	1.148	2.120	1.984	-0.073	-0.070	0.140
0.073	19.244	0.007	-0.070	0.130	0.280	1.335	0.668	0.104	1.126	2.124	1.989	-0.067	-0.073	0.138
0.073	19.250	0.006	-0.068	0.140	0.293	1.343	0.645	0.024	1.150	2.120	1.984	-0.067	-0.077	0.138
0.073	19.266	0.001	-0.070	0.150	0.300	1.336	0.670	-0.011	1.168	2.116	1.979	-0.063	-0.076	0.137
0.073	19.244	-0.005	-0.069	0.162	0.309	1.302	0.701	0.001	1.130	2.110	1.984	-0.060	-0.077	0.137
0.073	19.244	-0.005	-0.071	0.173	0.315	1.261	0.708	0.045	1.117	2.112	1.987	-0.056	-0.077	0.138
0.074	19.241	-0.007	-0.071	0.185	0.323	1.216	0.719	0.105	1.069	2.116	1.985	-0.051	-0.075	0.139
0.074	19.257	-0.008	-0.072	0.197	0.330	1.185	0.702	0.132	1.032	2.115	1.980	-0.049	-0.073	0.139
0.074	19.241	-0.007	-0.073	0.210	0.337	1.186	0.707	0.110	1.054	2.122	1.989	-0.045	-0.069	0.145
0.074	19.260	-0.009	-0.074	0.221	0.345	1.171	0.694	0.058	1.084	2.118	1.983	-0.042	-0.066	0.144
0.074	19.247	-0.010	-0.075	0.235	0.351	1.195	0.684	0.010	1.136	2.113	1.989	-0.040	-0.061	0.147
0.075	19.263	-0.016	-0.077	0.246	0.360	1.161	0.692	-0.038	1.188	2.112	1.989	-0.036	-0.056	0.149
0.075	19.229	-0.018	-0.080	0.256	0.370	1.159	0.659	-0.043	1.154	2.113	1.985	-0.035	-0.050	0.151
0.075	19.257	-0.024	-0.082	0.268	0.377	1.124	0.655	0.021	1.129	2.114	1.987	-0.032	-0.044	0.153
0.075	19.235	-0.025	-0.084	0.275	0.386	1.110	0.647	0.089	1.072	2.119	1.981	-0.030	-0.037	0.157
0.075	19.263	-0.029	-0.085	0.283	0.395	1.111	0.651	0.149	1.058	2.112	1.983	-0.029	-0.030	0.159
0.076	19.247	-0.030	-0.086	0.289	0.402	1.106	0.658	0.184	1.106	2.110	1.980	-0.029	-0.024	0.161
0.076	19.260	-0.030	-0.087	0.293	0.414	1.113	0.676	0.157	1.179	2.107	1.988	-0.029	-0.019	0.161
0.076	19.269	-0.030	-0.091	0.297	0.419	1.116	0.644	0.134	1.247	2.112	1.992	-0.030	-0.010	0.163
0.076	19.263	-0.031	-0.092	0.297	0.425	1.082	0.653	0.098	1.264	2.108	1.979	-0.030	-0.004	0.162
0.076	19.263	-0.034	-0.095	0.296	0.432	1.062	0.648	0.098	1.262	2.108	1.982	-0.031	0.002	0.162
0.077	19.278	-0.035	-0.095	0.296	0.434	1.074	0.650	0.153	1.249	2.107	1.988	-0.031	0.008	0.161
0.077	19.247	-0.038	-0.097	0.294	0.436	1.050	0.659	0.219	1.198	2.094	1.988	-0.033	0.016	0.160
0.077	19.263	-0.039	-0.097	0.291	0.436	1.060	0.674	0.295	1.198	2.110	1.983	-0.035	0.019	0.162
0.077	19.254	-0.041	-0.097	0.290	0.437	1.055	0.679	0.303	1.204	2.102	1.986	-0.036	0.023	0.159
0.077	19.250	-0.039	-0.097	0.287	0.432	1.062	0.689	0.266	1.232	2.115	1.980	-0.038	0.028	0.158
0.078	19.247	-0.037	-0.097	0.286	0.427	1.041	0.667	0.214	1.278	2.106	1.987	-0.041	0.031	0.156
0.078	19.247	-0.032	-0.095	0.280	0.421	1.039	0.635	0.163	1.297	2.106	1.989	-0.042	0.036	0.153
0.078	19.260	-0.028	-0.092	0.276	0.415	1.040	0.610	0.185	1.278	2.109	1.982	-0.043	0.038	0.150
0.078	19.284	-0.024	-0.089	0.272	0.408	1.033	0.575	0.228	1.243	2.104	1.982	-0.043	0.041	0.146
0.078	19.244	-0.022	-0.085	0.268	0.397	1.029	0.561	0.291	1.202	2.120	1.988	-0.048	0.039	0.144
0.079	19.247	-0.021	-0.083	0.261	0.393	0.994	0.542	0.331	1.232	2.115	1.985	-0.049	0.045	0.139
0.079	19.247	-0.021	-0.078	0.255	0.389	0.966	0.542	0.341	1.270	2.108	1.990	-0.051	0.048	0.134
0.079	19.226	-0.020	-0.074	0.248	0.382	0.946	0.550	0.314	1.357	2.100	1.989	-0.053	0.045	0.129
0.079	19.217	-0.019	-0.072	0.240	0.373	0.932	0.497	0.293	1.419	2.097	1.986	-0.054	0.047	0.129
0.079	19.223	-0.019	-0.065	0.233	0.370	0.934	0.461	0.276	1.438	2.105	1.987	-0.056	0.045	0.126
0.080	19.202	-0.015	-0.063	0.224	0.370	0.947	0.426	0.270	1.427	2.098	1.979	-0.059	0.047	0.126
0.080	19.214	-0.013	-0.057	0.216	0.362	0.951	0.393	0.302	1.391	2.109	1.977	-0.060	0.047	0.120
0.080	19.220	-0.008	-0.055	0.209	0.357	0.955	0.378	0.336	1.346	2.104	1.980	-0.064	0.045	0.118
0.080	19.208	-0.008	-0.050	0.202	0.354	0.932	0.378	0.372	1.298	2.102	1.986	-0.069	0.044	0.115
0.080	19.202	-0.005	-0.049	0.195	0.348	0.902	0.367	0.389	1.356	2.105	1.990	-0.069	0.041	0.114
0.081	19.202	-0.004	-0.045	0.186	0.343	0.880	0.366	0.363	1.408	2.107	1.985	-0.073	0.039	0.114
0.081	19.214	-0.002	-0.044	0.182	0.335	0.848	0.349	0.336	1.435	2.099	1.984	-0.076	0.035	0.113
0.081	19.208	-0.001	-0.042	0.178	0.327	0.856	0.350	0.339	1.476	2.102	1.980	-0.079	0.033	0.114
0.081	19.196	-0.000	-0.041	0.173	0.317	0.844	0.334	0.349	1.448	2.100	1.982	-0.085	0.030	0.114
0.081	19.183	0.004	-0.039	0.165	0.305	0.834	0.337	0.385	1.405	2.100	1.980	-0.086	0.028	0.115
0.082	19.205	0.007	-0.037	0.165	0.293	0.821	0.340	0.434	1.391	2.101	1.985	-0.090	0.026	0.116
0.082	19.211	0.010	-0.037	0.163	0.279	0.796	0.369	0.444	1.404	2.100	1.986	-0.091	0.020	0.119
0.082	19.189	0.015	-0.035	0.160	0.266	0.795	0.385	0.434	1.410	2.099	1.986	-0.094	0.021	0.121
0.082	19.208	0.018	-0.033	0.159	0.251	0.788	0.395	0.434	1.465	2.095	1.993	-0.094	0.016	0.123
0.082	19.183	0.022	-0.031	0.155	0.238	0.798	0.400	0.384	1.524	2.100	1.982	-0.096	0.015	0.126
0.083	19.193	0.024	-0.030	0.154	0.222	0.807	0.389	0.390	1.516	2.099	1.984	-0.096	0.010	0.128
0.083	19.186	0.027	-0.030	0.148	0.208	0.822	0.387	0.379	1.472	2.097	1.987	-0.095	0.007	0.129
0.083	19.193	0.030	-0.030	0.145	0.194	0.845	0.402	0.440	1.431	2.103	1.985	-0.092	0.004	0.132
0.083	19.186	0.031	-0.032	0.140	0.181	0.846	0.390	0.511	1.427	2.101	1.987	-0.090	0.004	0.132
0.083	19.162	0.035	-0.032	0.134	0.169	0.837	0.401	0.562	1.456	2.095	1.986	-0.089	-0.001	0.133
0.084	19.165	0.039	-0.033	0.129	0.156	0.853	0.402	0.604	1.505	2.095	1.981	-0.084	-0.002	0.134
0.084	19.165	0.044	-0.032	0.122	0.146	0.837	0.410	0.591	1.595	2.101	1.986	-0.081	-0.001	0.133
0.084	19.156	0.048	-0.029	0.114	0.136	0.849	0.419	0.575	1.624	2.103	1.990	-0.075	-0.001	0.133
0.084	19.168	0.050	-0.027	0.106	0.126	0.856	0.423	0.621	1.634	2.097	1.982	-0.071	0.000	0.132
0.084	19.159	0.052	-0.029	0.099	0.117	0.869	0.401	0.669	1.571	2.099	1.977	-0.067	0.001	0.130
0.085	19.159	0.053	-0.025	0.091	0.108	0.852	0.381	0.702	1.508	2.101	1.976	-0.064	0.001	0.128
0.085	19.156	0.054	-0.021	0.084	0.099	0.836	0.387	0.752	1.482	2.095	1.984	-0.058	0.002	0.126
0.085	19.153	0.055	-0.020	0.074	0.091	0.822	0.392	0.763	1.457	2.090	1.978	-0.054	0.004	0.123
0.085	19.156	0.058	-0.021	0.068	0.082	0.822	0.389	0.718	1.475	2.102	1.982	-0.047	0.005	0.119
0.085	19.138	0.061	-0.017	0.059	0.077	0.828	0.386	0.645	1.491	2.107	1.971	-0.039	0.006	0.117
0.086	19.147	0.060	-0.012	0.052	0.067	0.847	0.389	0.597	1.512	2.098	1.981	-0.040	0.009	0.113
0.086	19.131	0.061	-0.016	0.045	0.061	0.864	0.392	0.586	1.575	2.104	1.975	-0.035	0.011	0.112
0.086	19.131	0.065	-0.017	0.037	0.053	0.880	0.359	0.605	1.604	2.100	1.984	-0.030	0.012	0.110
0.086	19.119	0.068	-0.018	0.031	0.048	0.868	0.327	0.640	1.632	2.102	1.976	-0.028	0.013	0.109
0.086	19.131	0.065	-0.018	0.024	0.041	0.860	0.360	0.669	1.666	2.111	1.976	-0.025	0.014	0.108
0.087	19.125	0.065	-0.022	0.020	0.037	0.824	0.385	0.688	1.704	2.102	1.974	-0.021	0.013	0.108
0.087	19.128	0.067	-0.024	0.014	0.034	0.791	0.400	0.726	1.699	2.104	1.978	-0.017	0.015	0.108
0.087	19.131	0.068	-0.026	0.010	0.032	0.785	0.395	0.759	1.705	2.103	1.977	-0.016	0.015	0.106
0.087	19.141	0.067	-0.031	0.005	0.029	0.777	0.419	0.777	1.686	2.106	1.974	-0.012	0.016	0.106
0.087	19.119	0.066	-0.033	0.002	0.031	0.783	0.423	0.779	1.684	2.105	1.977	-0.010	0.017	0.106
0.088	19.110	0.069	-0.036	-0.002	0.032	0.780	0.423	0.783	1.666	2.098	1.974	-0.007	0.015	0.106
0.088	19.128	0.069	-0.040	-0.005	0.035	0.777	0.402	0.763	1.651	2.099	1.977	-0.006	0.014	0.108
0.088	19.107	0.069	-0.044	-0.004	0.038	0.775	0.399	0.754	1.660	2.099	1.976	-0.007	0.011	0.105
0.088	19.104	0.066	-0.047	-0.005	0.045	0.729	0.391	0.761	1.674	2.102	1.978	-0.005	0.009	0.104
0.088	19.125	0.064	-0.049	-0.006	0.050	0.705	0.404	0.801	1.653	2.096	1.982	-0.004	0.007	0.104
0.089	19.110	0.064	-0.052	-0.005	0.060	0.706	0.413	0.781	1.668	2.086	1.977	-0.002	0.003	0.101
0.089	19.116	0.063	-0.053	-0.005	0.069	0.723	0.410	0.784	1.706	2.094	1.978	-0.001	-0.000	0.101
0.089	19.131	0.062	-0.052	-0.006	0.080	0.705	0.414	0.749	1.746	2.101	1.979	-0.001	-0.004	0.094
0.089	19.119	0.062	-0.052	-0.004	0.091	0.712	0.393	0.740	1.790	2.096	1.969	-0.001	-0.008	0.091
0.089	19.101	0.061	-0.051	-0.001	0.103	0.700	0.356	0.743	1.804	2.087	1.968	-0.000	-0.013	0.084
0.090	19.119	0.060	-0.047	0.004	0.115	0.669	0.365	0.741	1.791	2.091	1.971	-0.002	-0.016	0.077
0.090	19.101	0.060	-0.046	0.010	0.127	0.646	0.390	0.779	1.763	2.100	1.980	-0.002	-0.021	0.072
0.090	19.138	0.056	-0.044	0.016	0.138	0.630	0.411	0.835	1.749	2.100	1.970	-0.002	-0.024	0.064
0.090	19.113	0.053	-0.042	0.025	0.147	0.644	0.429	0.871	1.733	2.103	1.976	-0.002	-0.028	0.056
0.090	19.135	0.047	-0.041	0.033	0.158	0.648	0.436	0.888	1.753	2.093	1.978	-0.002	-0.030	0.048
0.091	19.104	0.043	-0.040	0.043	0.165	0.671	0.427	0.872	1.771	2.101	1.972	-0.005	-0.033	0.041
0.091	19.122	0.039	-0.041	0.056	0.173	0.666	0.420	0.856	1.803	2.099	1.978	-0.006	-0.034	0.032
0.091	19.110	0.035	-0.042	0.069	0.177	0.658	0.385	0.828	1.793	2.096	1.972	-0.008	-0.037	0.027
0.091	19.098	0.035	-0.042	0.082	0.180	0.644	0.383	0.865	1.793	2.094	1.974	-0.010	-0.034	0.019
0.091	19.107	0.034	-0.042	0.096	0.181	0.622	0.380	0.933	1.767	2.083	1.973	-0.012	-0.037	0.016
0.092	19.104	0.034	-0.041	0.111	0.178	0.618	0.385	0.991	1.741	2.090	1.980	-0.012	-0.035	0.012
0.092	19.119	0.032	-0.042	0.125	0.177	0.609	0.378	0.993	1.763	2.092	1.977	-0.015	-0.036	0.012
0.092	19.119	0.029	-0.042	0.142	0.169	0.618	0.385	0.966	1.766	2.099	1.974	-0.016	-0.035	0.010
0.092	19.122	0.025	-0.041	0.158	0.161	0.615	0.380	0.916	1.754	2.090	1.973	-0.019	-0.031	0.013
0.092	19.113	0.020	-0.041	0.173	0.158	0.617	0.376	0.875	1.723	2.090	1.968	-0.021	-0.031	0.018
0.093	19.107	0.015	-0.043	0.187	0.154	0.596	0.381	0.832	1.724	2.095	1.972	-0.024	-0.025	0.020
0.093	19.110	0.012	-0.042	0.203	0.151	0.577	0.378	0.813	1.728	2.094	1.975	-0.026	-0.022	0.028
0.093	19.107	0.010	-0.043	0.217	0.148	0.549	0.381	0.793	1.729	2.100	1.973	-0.026	-0.021	0.033
0.093	19.110	0.012	-0.044	0.230	0.148	0.546	0.380	0.797	1.753	2.095	1.974	-0.031	-0.018	0.041
0.093	19.101	0.012	-0.044	0.243	0.148	0.536	0.376	0.805	1.751	2.104	1.972	-0.032	-0.012	0.049
0.094	19.119	0.014	-0.044	0.252	0.151	0.530	0.356	0.819	1.780	2.088	1.968	-0.035	-0.008	0.059
0.094	19.095	0.014	-0.044	0.262	0.156	0.522	0.360	0.836	1.795	2.081	1.977	-0.036	-0.004	0.069
0.094	19.089	0.013	-0.042	0.270	0.163	0.483	0.351	0.836	1.848	2.085	1.973	-0.038	-0.002	0.077
0.094	19.107	0.010	-0.039	0.273	0.173	0.457	0.343	0.828	1.920	2.087	1.972	-0.040	0.000	0.087
0.094	19.125	0.008	-0.036	0.277	0.186	0.440	0.340	0.823	1.967	2.093	1.980	-0.038	0.004	0.093
0.095	19.098	0.005	-0.035	0.282	0.202	0.454	0.331	0.816	2.007	2.091	1.977	-0.039	0.008	0.103
0.095	19.141	0.004	-0.032	0.283	0.220	0.463	0.352	0.862	2.005	2.080	1.976	-0.035	0.010	0.111
0.095	19.086	0.004	-0.030	0.279	0.238	0.482	0.365	0.874	2.029	2.088	1.969	-0.036	0.015	0.117
0.095	19.116	0.006	-0.028	0.278	0.257	0.464	0.388	0.881	2.022	2.088	1.971	-0.034	0.015	0.122
0.095	19.098	0.007	-0.027	0.275	0.279	0.446	0.388	0.880	2.011	2.089	1.972	-0.032	0.020	0.126
0.096	19.092	0.010	-0.026	0.272	0.295	0.438	0.380	0.873	1.985	2.085	1.980	-0.032	0.018	0.129
0.096	19.086	0.009	-0.025	0.268	0.311	0.404	0.375	0.880	1.960	2.086	1.974	-0.026	0.020	0.132
0.096	19.058	0.008	-0.022	0.264	0.325	0.399	0.390	0.916	1.904	2.096	1.971	-0.023	0.022	0.131
0.096	19.070	0.006	-0.021	0.262	0.337	0.408	0.392	0.946	1.891	2.087	1.979	-0.019	0.022	0.132
0.096	19.070	0.007	-0.020	0.258	0.346	0.422	0.412	0.956	1.865	2.090	1.974	-0.016	0.024	0.131
0.097	19.067	0.005	-0.019	0.257	0.354	0.409	0.431	0.918	1.892	2.088	1.973	-0.010	0.026	0.129
0.097	19.086	0.006	-0.018	0.255	0.358	0.408	0.448	0.864	1.923	2.083	1.969	-0.006	0.025	0.127
0.097	19.080	0.007	-0.016	0.255	0.361	0.376	0.446	0.801	1.979	2.087	1.978	-0.006	0.025	0.122
0.097	19.092	0.010	-0.014	0.254	0.360	0.372	0.427	0.754	2.016	2.077	1.976	-0.000	0.026	0.121
0.097	19.080	0.011	-0.014	0.254	0.359	0.364	0.397	0.750	2.003	2.085	1.971	0.001	0.025	0.118
0.098	19.086	0.013	-0.012	0.256	0.354	0.374	0.389	0.776	1.973	2.085	1.972	0.003	0.025	0.116
0.098	19.064	0.015	-0.011	0.257	0.346	0.381	0.376	0.821	1.947	2.087	1.976	0.005	0.024	0.111
0.098	19.055	0.017	-0.010	0.259	0.338	0.396	0.349	0.858	1.889	2.077	1.976	0.007	0.022	0.106
0.098	19.077	0.015	-0.007	0.259	0.327	0.391	0.377	0.839	1.883	2.077	1.979	0.008	0.021	0.104
0.098	19.083	0.015	-0.006	0.260	0.319	0.372	0.371	0.819	1.878	2.070	1.970	0.009	0.021	0.100
0.099	19.083	0.017	-0.003	0.260	0.309	0.379	0.357	0.779	1.910	2.091	1.976	0.013	0.019	0.098
0.099	19.061	0.020	-0.002	0.261	0.300	0.384	0.320	0.779	1.940	2.094	1.973	0.009	0.014	0.095
0.099	19.052	0.025	-0.003	0.258	0.295	0.392	0.268	0.775	1.941	2.084	1.967	0.009	0.017	0.093
0.099	19.052	0.028	0.001	0.257	0.288	0.392	0.262	0.823	1.901	2.086	1.968	0.009	0.017	0.088
0.099	19.058	0.032	-0.000	0.253	0.287	0.419	0.238	0.863	1.857	2.082	1.969	0.008	0.014	0.090
0.100	19.086	0.033	0.000	0.249	0.286	0.397	0.255	0.886	1.783	2.073	1.973	0.009	0.013	0.084
0.100	19.049	0.035	0.001	0.244	0.288	0.398	0.270	0.875	1.772	2.077	1.979	0.007	0.013	0.088
0.100	19.043	0.035	-0.002	0.240	0.292	0.393	0.287	0.834	1.750	2.087	1.971	0.007	0.012	0.088
0.100	19.034	0.033	-0.004	0.236	0.296	0.385	0.307	0.785	1.724	2.082	1.976	0.006	0.012	0.091
0.100	19.040	0.033	-0.005	0.231	0.304	0.386	0.295	0.739	1.738	2.084	1.968	0.005	0.013	0.091
0.101	19.061	0.035	-0.004	0.226	0.311	0.408	0.265	0.746	1.743	2.084	1.981	0.003	0.014	0.092
0.101	19.058	0.038	-0.004	0.221	0.321	0.412	0.244	0.760	1.732	2.081	1.973	0.004	0.015	0.098
0.101	19.025	0.042	-0.003	0.213	0.332	0.401	0.253	0.774	1.724	2.084	1.976	0.003	0.016	0.099
0.101	19.025	0.046	-0.000	0.207	0.343	0.416	0.270	0.809	1.730	2.075	1.969	0.004	0.018	0.104
0.101	19.022	0.048	-0.000	0.203	0.354	0.415	0.283	0.802	1.712	2.078	1.971	0.003	0.018	0.110
0.102	19.012	0.049	0.001	0.194	0.365	0.419	0.280	0.799	1.741	2.083	1.974	0.004	0.022	0.114
0.102	19.034	0.049	0.001	0.187	0.372	0.413	0.259	0.804	1.763	2.085	1.968	0.005	0.025	0.123
0.102	19.043	0.047	0.002	0.181	0.382	0.434	0.249	0.815	1.807	2.090	1.969	0.004	0.026	0.126
0.102	19.028	0.045	0.001	0.175	0.388	0.439	0.252	0.816	1.802	2.083	1.969	0.003	0.028	0.134
0.102	19.046	0.044	-0.001	0.170	0.393	0.424	0.253	0.827	1.815	2.076	1.972	0.003	0.031	0.144
0.103	19.019	0.044	-0.002	0.163	0.398	0.408	0.284	0.835	1.786	2.082	1.974	0.003	0.033	0.148
0.103	19.046	0.047	-0.004	0.159	0.401	0.374	0.293	0.850	1.722	2.079	1.971	0.002	0.035	0.157
0.103	19.034	0.047	-0.005	0.153	0.404	0.363	0.290	0.844	1.663	2.082	1.974	0.002	0.037	0.161
0.103	19.055	0.051	-0.005	0.149	0.401	0.368	0.258	0.851	1.597	2.081	1.978	0.001	0.037	0.167
0.103	19.003	0.051	-0.007	0.145	0.406	0.383	0.225	0.812	1.589	2.094	1.976	0.001	0.038	0.168
0.104	19.028	0.050	-0.004	0.142	0.409	0.379	0.204	0.823	1.627	2.088	1.970	-0.000	0.040	0.172
0.104	19.006	0.051	-0.003	0.139	0.405	0.389	0.209	0.812	1.669	2.089	1.972	-0.002	0.038	0.174
0.104	18.997	0.046	-0.004	0.136	0.401	0.383	0.234	0.807	1.684	2.070	1.975	-0.003	0.040	0.174
0.104	19.000	0.044	-0.004	0.137	0.402	0.378	0.279	0.837	1.663	2.086	1.966	-0.005	0.040	0.179
0.104	19.019	0.042	-0.005	0.137	0.398	0.353	0.312	0.868	1.665	2.088	1.974	-0.006	0.041	0.174
0.105	18.991	0.042	-0.006	0.136	0.394	0.332	0.320	0.892	1.677	2.085	1.980	-0.009	0.042	0.174
0.105	19.031	0.043	-0.009	0.139	0.389	0.317	0.306	0.901	1.654	2.084	1.974	-0.009	0.041	0.172
0.105	19.000	0.043	-0.011	0.143	0.386	0.315	0.272	0.870	1.648	2.088	1.974	-0.013	0.042	0.170
0.105	19.009	0.044	-0.014	0.145	0.382	0.306	0.254	0.858	1.693	2.080	1.972	-0.012	0.041	0.167
0.105	19.003	0.043	-0.016	0.144	0.379	0.311	0.228	0.836	1.736	2.086	1.977	-0.016	0.043	0.164
0.106	18.994	0.041	-0.018	0.147	0.375	0.310	0.260	0.832	1.682	2.089	1.974	-0.015	0.043	0.161
0.106	19.016	0.038	-0.021	0.151	0.372	0.298	0.270	0.852	1.656	2.089	1.977	-0.016	0.046	0.160
0.106	18.988	0.034	-0.021	0.150	0.368	0.277	0.269	0.869	1.624	2.096	1.973	-0.019	0.047	0.158
0.106	19.025	0.033	-0.021	0.151	0.363	0.264	0.275	0.875	1.605	2.083	1.976	-0.019	0.050	0.157
0.106	18.997	0.034	-0.023	0.152	0.359	0.256	0.270	0.840	1.595	2.094	1.975	-0.020	0.051	0.157
0.107	19.000	0.035	-0.024	0.153	0.355	0.235	0.265	0.816	1.626	2.086	1.978	-0.020	0.053	0.156
0.107	19.009	0.038	-0.026	0.156	0.349	0.258	0.250	0.811	1.670	2.089	1.983	-0.024	0.055	0.157
0.107	19.012	0.039	-0.028	0.157	0.344	0.264	0.259	0.807	1.676	2.094	1.976	-0.020	0.058	0.158
0.107	19.016	0.042	-0.028	0.161	0.338	0.278	0.275	0.858	1.653	2.094	1.973	-0.021	0.060	0.159
0.107	19.009	0.039	-0.031	0.163	0.333	0.288	0.303	0.846	1.633	2.086	1.981	-0.020	0.062	0.159
0.108	19.012	0.038	-0.031	0.166	0.326	0.267	0.330	0.868	1.562	2.094	1.977	-0.021	0.067	0.161
0.108	19.009	0.037	-0.031	0.170	0.320	0.278	0.342	0.838	1.523	2.094	1.978	-0.020	0.067	0.161
0.108	19.025	0.036	-0.028	0.171	0.313	0.266	0.349	0.797	1.518	2.085	1.976	-0.021	0.073	0.162
0.108	19.006	0.037	-0.026	0.176	0.307	0.267	0.338	0.778	1.530	2.095	1.987	-0.020	0.070	0.162
0.108	19.016	0.038	-0.025	0.179	0.303	0.277	0.334	0.784	1.535	2.094	1.981	-0.021	0.072	0.163
0.109	19.016	0.040	-0.022	0.181	0.297	0.277	0.350	0.774	1.528	2.089	1.981	-0.024	0.073	0.162
0.109	19.019	0.042	-0.017	0.185	0.290	0.272	0.405	0.792	1.536	2.084	1.987	-0.022	0.072	0.161
0.109	19.009	0.046	-0.015	0.187	0.287	0.302	0.428	0.843	1.539	2.089	1.976	-0.026	0.072	0.162
0.109	19.012	0.044	-0.015	0.189	0.283	0.280	0.443	0.868	1.534	2.091	1.984	-0.024	0.073	0.158
0.109	18.997	0.046	-0.009	0.192	0.280	0.293	0.444	0.851	1.544	2.087	1.986	-0.029	0.070	0.157
0.110	18.994	0.043	-0.008	0.195	0.277	0.313	0.423	0.803	1.571	2.096	1.986	-0.028	0.069	0.159
0.110	19.009	0.044	-0.006	0.197	0.278	0.296	0.401	0.815	1.588	2.087	1.984	-0.030	0.069	0.155
0.110	18.994	0.046	-0.006	0.198	0.279	0.312	0.398	0.789	1.568	2.094	1.980	-0.030	0.068	0.155
0.110	18.997	0.049	-0.004	0.200	0.281	0.313	0.410	0.785	1.510	2.092	1.982	-0.029	0.066	0.151
0.110	18.994	0.053	0.001	0.199	0.285	0.330	0.465	0.807	1.459	2.094	1.985	-0.032	0.064	0.149
0.111	19.028	0.055	0.001	0.199	0.289	0.317	0.524	0.814	1.437	2.090	1.985	-0.031	0.062	0.150
0.111	18.997	0.056	0.003	0.198	0.294	0.327	0.533	0.784	1.460	2.091	1.986	-0.033	0.060	0.150
0.111	19.000	0.057	0.005	0.195	0.299	0.322	0.520	0.732	1.482	2.082	1.993	-0.032	0.058	0.149
0.111	19.009	0.056	0.008	0.194	0.302	0.324	0.490	0.678	1.498	2.091	1.990	-0.034	0.055	0.150
0.111	18.985	0.057	0.009	0.191	0.304	0.320	0.459	0.654	1.514	2.089	1.986	-0.033	0.052	0.151
0.112	18.997	0.057	0.011	0.187	0.305	0.332	0.413	0.684	1.504	2.091	1.985	-0.033	0.052	0.151
0.112	18.985	0.062	0.012	0.184	0.306	0.346	0.434	0.740	1.494	2.092	1.990	-0.033	0.047	0.153
0.112	18.970	0.063	0.011	0.177	0.305	0.349	0.451	0.791	1.491	2.083	1.981	-0.032	0.045	0.152
0.112	18.967	0.066	0.012	0.171	0.303	0.351	0.477	0.789	1.484	2.097	1.985	-0.032	0.042	0.155
0.112	18.985	0.070	0.011	0.166	0.300	0.371	0.490	0.750	1.514	2.097	1.988	-0.032	0.039	0.160
0.113	18.976	0.071	0.013	0.159	0.294	0.366	0.469	0.696	1.500	2.096	1.985	-0.030	0.035	0.159
0.113	18.973	0.073	0.014	0.155	0.289	0.364	0.417	0.672	1.496	2.091	1.989	-0.030	0.032	0.160
0.113	18.945	0.074	0.016	0.148	0.283	0.373	0.383	0.644	1.490	2.094	1.992	-0.030	0.029	0.160
0.113	18.954	0.072	0.016	0.146	0.273	0.380	0.364	0.670	1.500	2.087	1.989	-0.029	0.025	0.162
0.113	18.942	0.074	0.017	0.139	0.262	0.387	0.371	0.671	1.490	2.092	1.988	-0.028	0.021	0.162
0.114	18.964	0.074	0.015	0.135	0.250	0.387	0.411	0.688	1.472	2.098	1.989	-0.029	0.018	0.165
0.114	18.948	0.077	0.015	0.131	0.237	0.415	0.443	0.692	1.471	2.100	1.991	-0.030	0.017	0.164
0.114	18.958	0.080	0.015	0.126	0.222	0.450	0.460	0.653	1.467	2.099	1.992	-0.030	0.013	0.167
0.114	18.930	0.082	0.015	0.121	0.208	0.446	0.460	0.633	1.462	2.084	1.990	-0.031	0.008	0.166
0.114	18.909	0.084	0.014	0.121	0.194	0.458	0.426	0.586	1.481	2.094	1.983	-0.033	0.008	0.167
0.115	18.930	0.083	0.011	0.118	0.180	0.462	0.391	0.589	1.464	2.090	1.991	-0.033	0.005	0.167
0.115	18.903	0.084	0.010	0.114	0.171	0.469	0.364	0.607	1.444	2.091	1.990	-0.035	0.004	0.161
0.115	18.918	0.082	0.010	0.112	0.161	0.471	0.356	0.621	1.432	2.094	1.990	-0.034	0.004	0.162
0.115	18.909	0.082	0.010	0.109	0.155	0.488	0.378	0.640	1.428	2.091	1.988	-0.032	0.002	0.159
0.115	18.909	0.083	0.011	0.110	0.148	0.516	0.408	0.613	1.444	2.085	1.984	-0.036	0.002	0.158
0.116	18.906	0.086	0.009	0.109	0.144	0.525	0.413	0.544	1.444	2.088	1.979	-0.035	0.003	0.154
0.116	18.912	0.088	0.009	0.109	0.141	0.545	0.396	0.487	1.444	2.087	1.983	-0.036	0.001	0.152
0.116	18.906	0.090	0.009	0.107	0.138	0.530	0.357	0.460	1.437	2.088	1.983	-0.038	0.004	0.150
0.116	18.896	0.090	0.010	0.105	0.141	0.518	0.335	0.489	1.437	2.092	1.986	-0.035	0.003	0.152
0.116	18.933	0.089	0.012	0.102	0.139	0.519	0.305	0.545	1.402	2.093	1.994	-0.034	0.005	0.146
0.117	18.906	0.085	0.012	0.099	0.140	0.522	0.311	0.589	1.391	2.083	1.989	-0.033	0.003	0.146
0.117	18.906	0.081	0.012	0.092	0.144	0.540	0.342	0.611	1.390	2.086	1.989	-0.031	0.006	0.142
0.117	18.903	0.077	0.013	0.083	0.151	0.568	0.332	0.601	1.408	2.088	1.991	-0.029	0.008	0.144
0.117	18.915	0.074	0.009	0.076	0.152	0.597	0.342	0.556	1.422	2.093	1.988	-0.027	0.007	0.140
0.117	18.903	0.074	0.009	0.066	0.156	0.619	0.330	0.508	1.421	2.087	1.981	-0.025	0.010	0.141
0.118	18.893	0.074	0.005	0.056	0.162	0.629	0.320	0.490	1.406	2.086	1.993	-0.022	0.006	0.145
0.118	18.893	0.074	0.004	0.046	0.171	0.620	0.300	0.522	1.411	2.079	1.987	-0.019	0.008	0.144
0.118	18.903	0.073	0.001	0.035	0.173	0.622	0.300	0.540	1.355	2.078	1.991	-0.017	0.007	0.146
0.118	18.884	0.071	-0.001	0.027	0.176	0.648	0.335	0.592	1.305	2.095	1.991	-0.014	0.005	0.143
0.118	18.893	0.067	-0.002	0.022	0.178	0.681	0.381	0.618	1.234	2.088	1.984	-0.011	0.003	0.142
0.119	18.884	0.062	-0.006	0.017	0.181	0.707	0.410	0.607	1.214	2.093	1.990	-0.013	0.002	0.143
0.119	18.903	0.055	-0.005	0.014	0.183	0.700	0.433	0.567	1.268	2.085	1.993	-0.008	0.001	0.140
0.119	18.900	0.050	-0.004	0.017	0.183	0.712	0.433	0.502	1.275	2.092	1.989	-0.002	-0.005	0.140
0.119	18.900	0.049	-0.002	0.020	0.186	0.718	0.433	0.469	1.295	2.093	1.994	-0.003	-0.007	0.138
0.119	18.890	0.046	-0.001	0.024	0.185	0.690	0.422	0.480	1.239	2.088	1.985	-0.003	-0.009	0.134
0.120	18.878	0.046	0.001	0.026	0.185	0.703	0.419	0.533	1.174	2.089	1.994	0.000	-0.012	0.132
0.120	18.893	0.044	-0.005	0.035	0.186	0.706	0.411	0.555	1.123	2.097	1.998	0.001	-0.009	0.129
0.120	18.875	0.042	-0.004	0.042	0.187	0.722	0.436	0.577	1.111	2.097	1.990	0.005	-0.018	0.120
0.120	18.875	0.036	-0.007	0.049	0.186	0.754	0.473	0.562	1.147	2.093	1.997	0.006	-0.019	0.121
0.120	18.878	0.032	-0.007	0.055	0.187	0.772	0.507	0.512	1.183	2.096	1.991	0.007	-0.023	0.117
0.121	18.875	0.025	-0.008	0.063	0.188	0.785	0.533	0.441	1.219	2.098	1.986	0.009	-0.026	0.112
0.121	18.869	0.019	-0.010	0.073	0.188	0.783	0.569	0.431	1.239	2.096	1.982	0.011	-0.027	0.109
0.121	18.869	0.015	-0.013	0.080	0.190	0.779	0.581	0.439	1.233	2.093	1.988	0.011	-0.030	0.103
0.121	18.869	0.012	-0.014	0.087	0.191	0.788	0.595	0.477	1.196	2.089	1.997	0.010	-0.030	0.099
0.121	18.875	0.008	-0.014	0.092	0.193	0.828	0.635	0.509	1.135	2.097	1.996	0.015	-0.032	0.096
0.122	18.906	0.008	-0.018	0.097	0.197	0.857	0.644	0.509	1.112	2.092	1.998	0.014	-0.031	0.095
0.122	18.863	0.006	-0.020	0.099	0.199	0.873	0.671	0.470	1.092	2.090	1.994	0.017	-0.031	0.092
0.122	18.872	0.003	-0.021	0.100	0.203	0.895	0.683	0.422	1.115	2.090	1.988	0.020	-0.029	0.092
0.122	18.863	-0.000	-0.024	0.100	0.206	0.881	0.677	0.389	1.138	2.095	1.995	0.020	-0.029	0.090
0.122	18.866	-0.006	-0.028	0.100	0.210	0.861	0.684	0.391	1.192	2.095	1.989	0.024	-0.026	0.088
0.123	18.851	-0.009	-0.032	0.097	0.214	0.848	0.687	0.383	1.207	2.087	1.999	0.023	-0.024	0.091
0.123	18.866	-0.013	-0.036	0.095	0.217	0.819	0.687	0.380	1.187	2.105	1.997	0.026	-0.021	0.093
0.123	18.829	-0.014	-0.037	0.094	0.218	0.822	0.699	0.371	1.161	2.092	1.996	0.025	-0.016	0.095
0.123	18.851	-0.018	-0.039	0.091	0.220	0.817	0.691	0.352	1.149	2.099	1.997	0.026	-0.013	0.097
0.123	18.848	-0.017	-0.037	0.091	0.220	0.838	0.699	0.341	1.126	2.087	1.990	0.026	-0.007	0.099
0.124	18.851	-0.019	-0.034	0.089	0.221	0.848	0.723	0.325	1.141	2.093	1.992	0.026	-0.003	0.102
0.124	18.835	-0.017	-0.033	0.089	0.219	0.840	0.693	0.312	1.187	2.095	1.994	0.027	0.002	0.105
0.124	18.811	-0.021	-0.026	0.091	0.216	0.821	0.712	0.327	1.212	2.096	1.988	0.028	0.007	0.108
0.124	18.826	-0.020	-0.022	0.092	0.214	0.798	0.663	0.334	1.220	2.085	1.988	0.029	0.013	0.112
0.124	18.826	-0.021	-0.016	0.094	0.211	0.805	0.641	0.350	1.191	2.097	1.998	0.030	0.019	0.115
0.125	18.829	-0.023	-0.011	0.098	0.209	0.752	0.611	0.362	1.167	2.096	1.993	0.031	0.024	0.120
0.125	18.820	-0.024	-0.009	0.102	0.204	0.734	0.593	0.350	1.139	2.091	1.995	0.031	0.028	0.123
0.125	18.823	-0.024	-0.007	0.108	0.202	0.708	0.574	0.351	1.132	2.089	1.992	0.032	0.032	0.127
0.125	18.826	-0.026	-0.007	0.116	0.198	0.706	0.570	0.339	1.119	2.095	1.991	0.032	0.036	0.129
0.125	18.832	-0.026	-0.007	0.125	0.196	0.706	0.578	0.363	1.132	2.098	1.993	0.031	0.039	0.131
0.126	18.835	-0.027	-0.006	0.135	0.195	0.714	0.575	0.396	1.128	2.095	1.995	0.030	0.041	0.133
0.126	18.811	-0.029	-0.006	0.145	0.192	0.732	0.556	0.403	1.118	2.107	2.002	0.029	0.042	0.132
0.126	18.829	-0.032	-0.006	0.154	0.189	0.720	0.558	0.379	1.064	2.095	1.998	0.029	0.042	0.134
0.126	18.820	-0.033	-0.005	0.165	0.188	0.674	0.545	0.340	1.037	2.096	1.995	0.028	0.042	0.130
0.126	18.814	-0.036	-0.003	0.175	0.187	0.671	0.557	0.314	1.023	2.096	1.994	0.025	0.040	0.130
0.127	18.814	-0.035	-0.004	0.186	0.185	0.679	0.556	0.284	1.027	2.091	1.992	0.023	0.036	0.128
0.127	18.811	-0.036	-0.004	0.195	0.183	0.671	0.565	0.292	1.021	2.091	1.996	0.021	0.034	0.123
0.127	18.808	-0.033	-0.002	0.205	0.180	0.690	0.579	0.315	1.028	2.097	1.996	0.018	0.032	0.122
0.127	18.835	-0.030	-0.002	0.210	0.182	0.724	0.561	0.332	1.028	2.091	2.001	0.017	0.024	0.116
0.127	18.820	-0.028	-0.002	0.217	0.178	0.756	0.542	0.339	1.022	2.101	1.987	0.015	0.020	0.112
0.128	18.832	-0.027	0.002	0.218	0.176	0.759	0.524	0.304	1.015	2.097	1.986	0.012	0.013	0.106
0.128	18.820	-0.025	0.004	0.221	0.171	0.751	0.500	0.259	1.035	2.099	1.990	0.010	0.008	0.099
0.128	18.832	-0.023	0.008	0.220	0.168	0.731	0.514	0.226	1.030	2.108	1.994	0.008	0.001	0.095
0.128	18.835	-0.025	0.012	0.219	0.163	0.693	0.510	0.237	1.033	2.097	1.992	0.006	-0.002	0.091
0.128	18.820	-0.024	0.015	0.217	0.155	0.691	0.514	0.271	1.043	2.092	1.999	0.006	-0.010	0.087
0.129	18.820	-0.024	0.022	0.213	0.152	0.686	0.511	0.310	1.065	2.101	1.996	0.004	-0.015	0.082
0.129	18.829	-0.021	0.028	0.208	0.149	0.722	0.476	0.315	1.064	2.102	1.995	0.001	-0.020	0.082
0.129	18.845	-0.020	0.032	0.206	0.140	0.724	0.463	0.287	1.096	2.100	1.993	0.001	-0.024	0.079
0.129	18.829	-0.017	0.038	0.197	0.130	0.747	0.433	0.225	1.104	2.099	1.993	0.001	-0.030	0.080
0.129	18.839	-0.014	0.036	0.193	0.128	0.741	0.401	0.180	1.120	2.087	2.001	0.001	-0.031	0.083
0.130	18.832	-0.013	0.038	0.186	0.124	0.712	0.385	0.145	1.112	2.098	1.999	0.001	-0.034	0.081
0.130	18.839	-0.009	0.040	0.182	0.118	0.749	0.384	0.153	1.096	2.096	1.994	0.001	-0.036	0.087
0.130	18.848	-0.009	0.037	0.176	0.113	0.734	0.360	0.206	1.068	2.095	1.998	0.004	-0.037	0.087
0.130	18.832	-0.006	0.039	0.169	0.110	0.755	0.369	0.249	1.048	2.100	1.989	0.004	-0.038	0.092
0.130	18.835	-0.007	0.038	0.164	0.110	0.740	0.351	0.257	1.032	2.103	1.993	0.007	-0.037	0.094
0.131	18.826	-0.004	0.036	0.158	0.112	0.748	0.343	0.203	1.010	2.098	1.990	0.008	-0.039	0.099
0.131	18.839	-0.001	0.034	0.153	0.115	0.744	0.331	0.154	1.089	2.091	1.986	0.010	-0.038	0.103
0.131	18.835	0.002	0.032	0.144	0.119	0.749	0.327	0.083	1.105	2.099	1.999	0.011	-0.037	0.106
0.131	18.829	0.005	0.031	0.136	0.127	0.746	0.348	0.075	1.125	2.093	1.996	0.014	-0.037	0.112
0.131	18.829	0.008	0.029	0.125	0.134	0.761	0.380	0.084	1.110	2.093	1.999	0.017	-0.036	0.114
0.132	18.854	0.010	0.026	0.116	0.141	0.798	0.401	0.153	1.113	2.094	1.990	0.018	-0.037	0.118
0.132	18.826	0.012	0.023	0.103	0.149	0.843	0.399	0.226	1.143	2.096	1.988	0.019	-0.034	0.119
0.132	18.835	0.011	0.022	0.092	0.155	0.843	0.384	0.271	1.140	2.093	1.997	0.022	-0.035	0.118
0.132	18.820	0.013	0.021	0.079	0.161	0.868	0.360	0.271	1.166	2.084	1.994	0.022	-0.035	0.119
0.132	18.854	0.013	0.019	0.069	0.166	0.858	0.351	0.255	1.163	2.096	1.989	0.026	-0.037	0.117
0.133	18.832	0.016	0.017	0.058	0.171	0.849	0.360	0.219	1.191	2.090	2.000	0.026	-0.035	0.114
0.133	18.860	0.019	0.016	0.049	0.172	0.846	0.417	0.175	1.173	2.092	1.996	0.028	-0.039	0.114
0.133	18.839	0.022	0.015	0.042	0.173	0.856	0.452	0.197	1.123	2.088	1.992	0.030	-0.038	0.107
0.133	18.845	0.025	0.015	0.034	0.171	0.907	0.474	0.245	1.094	2.095	1.989	0.030	-0.040	0.103
0.133	18.829	0.026	0.013	0.029	0.167	0.937	0.472	0.267	1.062	2.092	1.992	0.033	-0.039	0.097
0.134	18.875	0.026	0.012	0.025	0.162	0.967	0.438	0.259	1.068	2.094	1.993	0.035	-0.038	0.091
0.134	18.829	0.024	0.011	0.024	0.156	0.969	0.403	0.263	1.050	2.092	1.998	0.035	-0.043	0.086
0.134	18.851	0.023	0.009	0.022	0.146	0.949	0.384	0.244	1.075	2.093	1.997	0.043	-0.044	0.080
0.134	18.845	0.023	0.008	0.024	0.138	0.912	0.377	0.199	1.075	2.091	1.994	0.041	-0.043	0.076
0.134	18.845	0.022	0.008	0.024	0.130	0.875	0.380	0.181	1.052	2.097	1.989	0.043	-0.041	0.069
0.135	18.829	0.021	0.009	0.029	0.121	0.871	0.392	0.220	1.046	2.089	1.988	0.045	-0.046	0.065
0.135	18.845	0.020	0.006	0.029	0.114	0.865	0.387	0.280	1.044	2.091	1.994	0.047	-0.042	0.064
0.135	18.835	0.017	0.009	0.031	0.111	0.881	0.377	0.295	1.034	2.088	1.989	0.046	-0.040	0.056
0.135	18.875	0.016	0.008	0.035	0.111	0.896	0.366	0.305	1.051	2.083	1.988	0.049	-0.038	0.053
0.135	18.854	0.013	0.009	0.037	0.110	0.908	0.372	0.291	1.062	2.085	1.991	0.050	-0.036	0.049
0.136	18.851	0.009	0.005	0.037	0.114	0.907	0.378	0.243	1.059	2.092	1.992	0.052	-0.034	0.049
0.136	18.860	0.006	0.007	0.038	0.115	0.897	0.359	0.214	1.064	2.091	1.996	0.054	-0.031	0.047
0.136	18.857	0.003	0.006	0.037	0.117	0.894	0.385	0.195	1.011	2.094	2.000	0.052	-0.025	0.046
0.136	18.842	-0.001	0.005	0.037	0.125	0.878	0.401	0.201	0.993	2.089	1.992	0.051	-0.023	0.044
0.136	18.863	-0.003	0.005	0.035	0.130	0.871	0.388	0.246	0.965	2.087	1.992	0.050	-0.020	0.045
0.137	18.845	-0.002	0.004	0.036	0.135	0.868	0.378	0.283	0.989	2.094	1.989	0.050	-0.015	0.044
0.137	18.860	-0.006	0.003	0.033	0.143	0.888	0.405	0.300	0.994	2.079	1.989	0.048	-0.013	0.044
0.137	18.845	-0.010	0.000	0.033	0.147	0.882	0.427	0.299	1.001	2.079	1.999	0.046	-0.008	0.045
0.137	18.851	-0.012	-0.003	0.030	0.151	0.874	0.407	0.281	0.970	2.091	1.994	0.045	-0.007	0.046
0.137	18.848	-0.013	-0.006	0.029	0.155	0.874	0.413	0.286	0.948	2.084	1.996	0.041	-0.000	0.048
0.138	18.851	-0.019	-0.011	0.030	0.156	0.911	0.409	0.283	0.943	2.091	1.994	0.038	0.004	0.047
0.138	18.878	-0.021	-0.014	0.029	0.155	0.885	0.421	0.303	0.911	2.080	1.994	0.035	0.009	0.050
0.138	18.869	-0.022	-0.018	0.028	0.153	0.881	0.426	0.301	0.920	2.083	1.987	0.032	0.010	0.050
0.138	18.866	-0.024	-0.024	0.029	0.149	0.906	0.428	0.286	0.938	2.085	1.990	0.029	0.013	0.055
0.138	18.832	-0.026	-0.028	0.027	0.141	0.956	0.444	0.267	0.956	2.083	1.991	0.027	0.017	0.060
0.139	18.857	-0.027	-0.034	0.028	0.132	0.949	0.454	0.221	0.977	2.090	1.984	0.025	0.019	0.058
0.139	18.863	-0.025	-0.039	0.030	0.123	0.966	0.470	0.191	0.970	2.083	1.985	0.024	0.021	0.061
0.139	18.860	-0.027	-0.040	0.030	0.113	0.943	0.485	0.177	0.947	2.083	1.981	0.018	0.024	0.063
0.139	18.863	-0.026	-0.041	0.032	0.102	0.901	0.496	0.210	0.940	2.076	1.990	0.022	0.026	0.066
0.139	18.860	-0.021	-0.040	0.034	0.092	0.913	0.526	0.221	0.945	2.082	1.995	0.021	0.025	0.067
0.140	18.854	-0.024	-0.041	0.035	0.084	0.912	0.526	0.217	0.956	2.077	1.990	0.019	0.029	0.070
0.140	18.881	-0.021	-0.037	0.037	0.073	0.958	0.551	0.217	0.995	2.080	1.992	0.019	0.028	0.070
0.140	18.872	-0.020	-0.037	0.038	0.065	0.975	0.558	0.207	1.035	2.081	1.986	0.019	0.032	0.073
0.140	18.869	-0.019	-0.035	0.039	0.060	0.992	0.571	0.190	1.092	2.083	1.988	0.019	0.033	0.071
0.140	18.881	-0.019	-0.032	0.039	0.054	0.977	0.574	0.182	1.099	2.082	1.987	0.019	0.035	0.073
0.141	18.872	-0.018	-0.030	0.040	0.053	0.963	0.587	0.161	1.102	2.078	1.995	0.019	0.033	0.073
0.141	18.924	-0.018	-0.028	0.040	0.051	0.980	0.595	0.150	1.081	2.088	1.996	0.019	0.033	0.075
0.141	18.872	-0.018	-0.025	0.040	0.051	0.984	0.585	0.169	1.051	2.078	1.991	0.018	0.032	0.074
0.141	18.906	-0.018	-0.021	0.041	0.053	0.994	0.589	0.177	1.035	2.071	1.991	0.018	0.032	0.073
0.141	18.875	-0.018	-0.017	0.042	0.057	1.020	0.586	0.190	1.063	2.086	1.985	0.015	0.030	0.075
0.142	18.893	-0.016	-0.013	0.044	0.059	1.028	0.598	0.183	1.096	2.087	1.979	0.014	0.031	0.073
0.142	18.887	-0.015	-0.012	0.046	0.065	1.052	0.594	0.158	1.120	2.090	1.987	0.013	0.028	0.074
0.142	18.884	-0.014	-0.011	0.047	0.069	1.046	0.605	0.125	1.142	2.075	1.984	0.011	0.027	0.072
0.142	18.893	-0.009	-0.010	0.050	0.074	1.013	0.605	0.118	1.127	2.076	1.980	0.009	0.024	0.074
0.142	18.890	-0.009	-0.009	0.052	0.077	0.996	0.587	0.113	1.088	2.079	1.984	0.006	0.020	0.073
0.143	18.887	-0.009	-0.009	0.055	0.075	0.955	0.596	0.126	1.074	2.085	1.976	0.005	0.020	0.075
0.143	18.903	-0.008	-0.008	0.056	0.081	0.959	0.599	0.117	1.079	2.079	1.982	0.002	0.016	0.078
0.143	18.893	-0.008	-0.008	0.057	0.081	0.959	0.603	0.097	1.124	2.075	1.985	0.001	0.016	0.078
0.143	18.900	-0.007	-0.009	0.060	0.077	0.992	0.623	0.040	1.177	2.076	1.988	-0.001	0.012	0.082
0.143	18.912	-0.007	-0.010	0.060	0.077	1.009	0.640	0.002	1.238	2.075	1.982	-0.003	0.010	0.082
0.144	18.906	-0.004	-0.012	0.059	0.074	1.017	0.638	-0.032	1.256	2.070	1.976	-0.003	0.006	0.082
0.144	18.912	-0.002	-0.011	0.060	0.073	0.994	0.644	-0.050	1.217	2.070	1.977	-0.001	0.003	0.083
0.144	18.906	0.000	-0.013	0.061	0.069	0.960	0.637	-0.029	1.163	2.078	1.978	-0.004	0.002	0.083
0.144	18.921	0.002	-0.014	0.058	0.069	0.923	0.670	0.024	1.135	2.067	1.986	-0.001	-0.003	0.083
0.144	18.918	0.001	-0.015	0.058	0.068	0.900	0.682	0.051	1.152	2.066	1.976	-0.004	-0.004	0.083
0.145	18.893	0.001	-0.017	0.054	0.066	0.929	0.729	0.038	1.185	2.077	1.974	-0.003	-0.008	0.082
0.145	18.903	0.001	-0.016	0.049	0.068	0.906	0.750	0.002	1.225	2.072	1.982	-0.001	-0.007	0.079
0.145	18.912	0.001	-0.017	0.047	0.068	0.912	0.754	-0.012	1.259	2.071	1.980	-0.001	-0.009	0.077
0.145	18.915	0.001	-0.018	0.044	0.072	0.908	0.751	-0.026	1.272	2.072	1.980	0.003	-0.013	0.075
0.145	18.909	0.003	-0.015	0.036	0.076	0.900	0.725	0.003	1.236	2.084	1.979	0.005	-0.011	0.072
0.146	18.906	0.006	-0.012	0.030	0.079	0.895	0.703	0.068	1.183	2.079	1.976	0.007	-0.016	0.070
0.146	18.918	0.011	-0.008	0.022	0.087	0.882	0.719	0.124	1.129	2.078	1.986	0.010	-0.018	0.065
0.146	18.903	0.014	-0.007	0.017	0.094	0.852	0.742	0.144	1.111	2.074	1.981	0.011	-0.019	0.060
0.146	18.912	0.016	-0.006	0.012	0.100	0.834	0.757	0.153	1.145	2.074	1.976	0.015	-0.020	0.057
0.146	18.909	0.016	-0.003	0.003	0.109	0.809	0.788	0.134	1.185	2.071	1.979	0.017	-0.019	0.052
0.147	18.909	0.013	-0.002	-0.004	0.118	0.792	0.784	0.097	1.217	2.073	1.980	0.021	-0.018	0.048
0.147	18.918	0.014	-0.001	-0.011	0.121	0.790	0.761	0.032	1.225	2.068	1.975	0.021	-0.020	0.045
0.147	18.909	0.011	0.002	-0.019	0.127	0.773	0.729	0.033	1.203	2.070	1.976	0.026	-0.019	0.042
0.147	18.909	0.012	0.000	-0.025	0.131	0.740	0.672	0.085	1.155	2.074	1.977	0.026	-0.018	0.039
0.147	18.915	0.013	0.001	-0.030	0.135	0.722	0.658	0.130	1.141	2.068	1.976	0.030	-0.018	0.038
0.148	18.896	0.015	-0.003	-0.038	0.138	0.720	0.638	0.173	1.124	2.081	1.969	0.031	-0.018	0.038
0.148	18.930	0.018	-0.005	-0.045	0.140	0.730	0.653	0.184	1.113	2.070	1.968	0.037	-0.018	0.037
0.148	18.906	0.014	-0.010	-0.051	0.142	0.723	0.651	0.199	1.117	2.076	1.970	0.037	-0.017	0.039
0.148	18.933	0.013	-0.012	-0.057	0.144	0.689	0.643	0.203	1.134	2.077	1.966	0.043	-0.014	0.039
0.148	18.896	0.009	-0.019	-0.061	0.149	0.652	0.644	0.215	1.115	2.074	1.971	0.044	-0.014	0.039
0.149	18.900	0.006	-0.027	-0.064	0.155	0.619	0.616	0.220	1.111	2.076	1.972	0.049	-0.013	0.043
0.149	18.915	0.004	-0.032	-0.069	0.160	0.606	0.611	0.217	1.098	2.073	1.962	0.055	-0.012	0.045
0.149	18.909	0.004	-0.038	-0.070	0.167	0.595	0.598	0.252	1.096	2.065	1.969	0.057	-0.012	0.047
0.149	18.930	-0.000	-0.044	-0.070	0.176	0.595	0.562	0.290	1.093	2.068	1.972	0.062	-0.010	0.049
0.149	18.918	-0.004	-0.049	-0.068	0.184	0.621	0.580	0.322	1.079	2.075	1.968	0.063	-0.010	0.051
0.150	18.912	-0.005	-0.059	-0.068	0.194	0.669	0.606	0.338	1.065	2.070	1.970	0.063	-0.012	0.053
0.150	18.936	-0.009	-0.065	-0.064	0.203	0.699	0.594	0.352	1.071	2.054	1.965	0.066	-0.009	0.054
0.150	18.924	-0.009	-0.072	-0.063	0.213	0.712	0.586	0.338	1.084	2.057	1.976	0.070	-0.012	0.054
0.150	18.927	-0.019	-0.077	-0.058	0.223	0.719	0.608	0.312	1.138	2.053	1.972	0.072	-0.012	0.055
0.150	18.936	-0.023	-0.081	-0.057	0.234	0.713	0.640	0.266	1.161	2.057	1.975	0.073	-0.015	0.054
0.151	18.945	-0.029	-0.085	-0.053	0.245	0.698	0.638	0.239	1.176	2.060	1.972	0.075	-0.015	0.054
0.151	18.930	-0.032	-0.088	-0.051	0.255	0.717	0.638	0.230	1.135	2.056	1.967	0.075	-0.018	0.052
0.151	18.948	-0.039	-0.092	-0.048	0.267	0.719	0.655	0.286	1.093	2.058	1.966	0.075	-0.016	0.048
0.151	18.924	-0.046	-0.095	-0.047	0.274	0.713	0.646	0.348	1.074	2.070	1.963	0.075	-0.016	0.046
0.151	18.933	-0.048	-0.098	-0.047	0.280	0.724	0.658	0.362	1.102	2.058	1.965	0.074	-0.016	0.042
0.152	18.933	-0.053	-0.101	-0.047	0.282	0.746	0.651	0.350	1.126	2.056	1.966	0.073	-0.016	0.039
0.152	18.954	-0.062	-0.103	-0.048	0.282	0.763	0.676	0.304	1.172	2.057	1.958	0.074	-0.016	0.032
0.152	18.930	-0.069	-0.105	-0.049	0.279	0.795	0.705	0.284	1.212	2.056	1.962	0.068	-0.015	0.027
0.152	18.924	-0.075	-0.105	-0.052	0.273	0.792	0.774	0.320	1.204	2.047	1.957	0.066	-0.012	0.026
0.152	18.933	-0.080	-0.105	-0.053	0.266	0.797	0.816	0.331	1.179	2.051	1.967	0.062	-0.010	0.020
0.153	18.951	-0.083	-0.108	-0.055	0.255	0.800	0.852	0.341	1.155	2.052	1.962	0.059	-0.005	0.018
0.153	18.939	-0.085	-0.108	-0.055	0.246	0.766	0.860	0.334	1.154	2.048	1.960	0.055	-0.004	0.013
0.153	18.945	-0.085	-0.107	-0.056	0.233	0.764	0.841	0.323	1.171	2.044	1.965	0.050	-0.000	0.010
0.153	18.936	-0.086	-0.108	-0.056	0.218	0.744	0.802	0.314	1.222	2.057	1.960	0.046	0.004	0.009
0.153	18.951	-0.086	-0.108	-0.057	0.202	0.738	0.798	0.302	1.254	2.053	1.962	0.041	0.008	0.005
0.154	18.948	-0.087	-0.108	-0.056	0.185	0.740	0.799	0.317	1.257	2.046	1.958	0.036	0.012	0.004
0.154	18.927	-0.088	-0.111	-0.056	0.169	0.775	0.836	0.324	1.249	2.041	1.963	0.030	0.017	0.001
0.154	18.933	-0.092	-0.113	-0.059	0.153	0.766	0.878	0.311	1.238	2.041	1.966	0.024	0.020	0.002
0.154	18.927	-0.093	-0.115	-0.058	0.133	0.774	0.919	0.303	1.233	2.046	1.961	0.021	0.023	0.000
0.154	18.936	-0.093	-0.117	-0.059	0.112	0.773	0.937	0.267	1.256	2.044	1.958	0.011	0.029	0.004
0.155	18.909	-0.093	-0.117	-0.061	0.096	0.732	0.926	0.245	1.298	2.042	1.962	0.009	0.032	0.006
0.155	18.942	-0.090	-0.117	-0.061	0.079	0.706	0.909	0.246	1.328	2.045	1.960	0.005	0.036	0.006
0.155	18.912	-0.085	-0.115	-0.059	0.065	0.687	0.883	0.246	1.341	2.053	1.952	0.001	0.037	0.011
0.155	18.936	-0.082	-0.113	-0.059	0.057	0.677	0.845	0.254	1.343	2.043	1.956	-0.003	0.042	0.010
0.155	18.927	-0.077	-0.109	-0.055	0.043	0.662	0.863	0.276	1.282	2.050	1.955	-0.006	0.044	0.014
0.156	18.927	-0.077	-0.107	-0.057	0.039	0.664	0.861	0.287	1.224	2.042	1.949	-0.008	0.047	0.014
0.156	18.930	-0.078	-0.104	-0.056	0.030	0.676	0.876	0.296	1.149	2.042	1.958	-0.007	0.048	0.015
0.156	18.924	-0.078	-0.102	-0.052	0.028	0.696	0.865	0.298	1.153	2.033	1.959	-0.014	0.048	0.017
0.156	18.924	-0.080	-0.099	-0.052	0.025	0.699	0.843	0.272	1.207	2.035	1.958	-0.015	0.051	0.020
0.156	18.933	-0.077	-0.098	-0.047	0.023	0.692	0.796	0.254	1.261	2.044	1.955	-0.015	0.051	0.017
0.157	18.933	-0.074	-0.096	-0.044	0.023	0.645	0.760	0.264	1.326	2.043	1.953	-0.017	0.052	0.018
0.157	18.927	-0.071	-0.093	-0.040	0.022	0.609	0.749	0.278	1.326	2.033	1.958	-0.016	0.051	0.021
0.157	18.939	-0.066	-0.093	-0.037	0.025	0.582	0.743	0.328	1.313	2.028	1.953	-0.016	0.051	0.015
0.157	18.930	-0.064	-0.091	-0.036	0.029	0.580	0.747	0.340	1.285	2.039	1.951	-0.014	0.050	0.013
0.157	18.954	-0.061	-0.089	-0.034	0.031	0.553	0.772	0.351	1.233	2.030	1.949	-0.013	0.049	0.012
0.158	18.924	-0.060	-0.086	-0.034	0.034	0.543	0.762	0.353	1.204	2.028	1.951	-0.009	0.045	0.009
0.158	18.948	-0.059	-0.086	-0.035	0.037	0.518	0.762	0.341	1.223	2.027	1.951	-0.012	0.046	0.006
0.158	18.936	-0.059	-0.085	-0.034	0.040	0.508	0.724	0.347	1.241	2.038	1.952	-0.011	0.043	0.002
0.158	18.933	-0.055	-0.084	-0.035	0.041	0.513	0.708	0.374	1.280	2.035	1.954	-0.009	0.047	-0.002
0.158	18.924	-0.053	-0.082	-0.038	0.041	0.519	0.686	0.409	1.288	2.036	1.947	-0.009	0.041	-0.009
0.159	18.927	-0.049	-0.081	-0.038	0.039	0.529	0.700	0.434	1.269	2.029	1.955	-0.006	0.039	-0.009
0.159	18.933	-0.046	-0.081	-0.042	0.037	0.509	0.716	0.434	1.232	2.033	1.947	-0.006	0.039	-0.009
0.159	18.933	-0.043	-0.079	-0.046	0.031	0.486	0.727	0.459	1.174	2.033	1.948	-0.003	0.035	-0.018
0.159	18.918	-0.040	-0.079	-0.047	0.026	0.490	0.730	0.461	1.165	2.030	1.944	-0.003	0.031	-0.021
0.159	18.948	-0.040	-0.076	-0.051	0.018	0.482	0.707	0.460	1.173	2.030	1.944	-0.004	0.030	-0.026
0.160	18.945	-0.039	-0.074	-0.057	0.010	0.457	0.690	0.477	1.184	2.033	1.949	0.001	0.026	-0.028
0.160	18.954	-0.036	-0.072	-0.059	0.001	0.456	0.665	0.508	1.214	2.037	1.941	-0.000	0.025	-0.030
0.160	18.927	-0.038	-0.067	-0.063	-0.007	0.416	0.682	0.551	1.232	2.029	1.939	0.006	0.023	-0.032
0.160	18.939	-0.031	-0.067	-0.067	-0.015	0.451	0.687	0.607	1.220	2.025	1.936	0.003	0.020	-0.032
0.160	18.936	-0.028	-0.066	-0.070	-0.024	0.453	0.729	0.610	1.177	2.028	1.941	0.006	0.020	-0.032
0.161	18.948	-0.023	-0.064	-0.073	-0.034	0.473	0.744	0.614	1.148	2.018	1.944	0.010	0.020	-0.033
0.161	18.933	-0.018	-0.061	-0.076	-0.041	0.452	0.757	0.598	1.105	2.024	1.938	0.011	0.019	-0.033
0.161	18.961	-0.018	-0.061	-0.080	-0.048	0.426	0.773	0.586	1.101	2.019	1.942	0.015	0.019	-0.033
0.161	18.942	-0.016	-0.061	-0.082	-0.054	0.426	0.753	0.597	1.116	2.020	1.951	0.016	0.017	-0.029
0.161	18.958	-0.016	-0.061	-0.085	-0.057	0.433	0.763	0.639	1.108	2.019	1.939	0.020	0.017	-0.028
0.162	18.958	-0.017	-0.061	-0.087	-0.060	0.447	0.767	0.672	1.122	2.023	1.944	0.022	0.018	-0.025
0.162	18.970	-0.016	-0.062	-0.089	-0.060	0.474	0.778	0.651	1.125	2.025	1.942	0.026	0.017	-0.023
0.162	18.979	-0.013	-0.064	-0.092	-0.058	0.477	0.792	0.616	1.120	2.023	1.935	0.029	0.018	-0.021
0.162	18.973	-0.009	-0.063	-0.095	-0.055	0.480	0.811	0.569	1.140	2.026	1.936	0.033	0.017	-0.018
0.162	18.982	-0.006	-0.063	-0.096	-0.050	0.454	0.838	0.533	1.151	2.023	1.935	0.036	0.017	-0.018
0.163	18.976	0.001	-0.062	-0.099	-0.042	0.471	0.839	0.541	1.151	2.023	1.933	0.039	0.016	-0.016
0.163	18.991	-0.001	-0.061	-0.100	-0.034	0.477	0.848	0.601	1.154	2.012	1.933	0.043	0.017	-0.020
0.163	18.979	0.000	-0.060	-0.101	-0.025	0.500	0.863	0.656	1.193	2.024	1.934	0.045	0.017	-0.019
0.163	19.000	-0.001	-0.058	-0.102	-0.013	0.528	0.865	0.707	1.186	2.028	1.934	0.048	0.015	-0.023
0.163	18.976	-0.002	-0.057	-0.099	-0.003	0.579	0.874	0.713	1.179	2.019	1.932	0.050	0.014	-0.025
0.164	18.982	-0.004	-0.058	-0.097	0.008	0.594	0.895	0.693	1.174	2.018	1.936	0.051	0.013	-0.028
0.164	18.988	-0.003	-0.057	-0.097	0.020	0.606	0.907	0.668	1.150	2.011	1.926	0.052	0.011	-0.031
0.164	18.997	-0.004	-0.058	-0.089	0.030	0.578	0.934	0.628	1.108	2.015	1.930	0.053	0.008	-0.037
0.164	18.997	-0.002	-0.060	-0.083	0.044	0.568	0.932	0.614	1.098	2.009	1.932	0.053	0.005	-0.042
0.164	18.991	-0.002	-0.060	-0.074	0.058	0.548	0.936	0.627	1.095	2.015	1.935	0.052	0.002	-0.050
0.165	19.016	-0.001	-0.063	-0.063	0.070	0.543	0.901	0.644	1.091	2.011	1.928	0.054	-0.002	-0.056
0.165	18.988	-0.003	-0.061	-0.054	0.080	0.560	0.875	0.663	1.082	2.016	1.934	0.052	-0.007	-0.064
0.165	18.988	-0.007	-0.061	-0.041	0.089	0.551	0.856	0.655	1.087	2.015	1.933	0.052	-0.009	-0.074
0.165	18.997	-0.007	-0.061	-0.030	0.096	0.561	0.838	0.628	1.092	2.017	1.928	0.050	-0.014	-0.081
0.165	18.997	-0.012	-0.061	-0.017	0.104	0.547	0.844	0.601	1.113	2.014	1.929	0.049	-0.017	-0.091
0.166	19.009	-0.013	-0.061	-0.003	0.110	0.549	0.841	0.582	1.102	2.013	1.924	0.046	-0.022	-0.096
0.166	19.006	-0.015	-0.061	0.012	0.116	0.519	0.845	0.605	1.089	2.012	1.926	0.046	-0.024	-0.104
0.166	19.009	-0.015	-0.060	0.026	0.119	0.489	0.838	0.616	1.130	2.005	1.929	0.043	-0.027	-0.110
0.166	18.979	-0.017	-0.061	0.041	0.123	0.453	0.809	0.639	1.172	2.012	1.927	0.044	-0.032	-0.119
0.166	18.997	-0.018	-0.061	0.054	0.127	0.446	0.775	0.662	1.190	2.021	1.928	0.042	-0.033	-0.125
0.167	18.994	-0.021	-0.061	0.069	0.129	0.468	0.757	0.665	1.197	2.012	1.931	0.041	-0.037	-0.130
0.167	18.991	-0.025	-0.062	0.080	0.129	0.444	0.731	0.651	1.188	2.015	1.931	0.040	-0.037	-0.135
0.167	19.003	-0.030	-0.062	0.092	0.129	0.446	0.732	0.646	1.164	2.014	1.933	0.040	-0.040	-0.136
0.167	18.991	-0.035	-0.064	0.100	0.131	0.420	0.703	0.640	1.142	2.010	1.928	0.040	-0.042	-0.140
0.167	18.994	-0.040	-0.060	0.108	0.129	0.405	0.724	0.651	1.166	2.007	1.927	0.037	-0.041	-0.139
0.168	18.991	-0.044	-0.058	0.116	0.126	0.350	0.747	0.672	1.195	2.015	1.924	0.038	-0.043	-0.140
0.168	19.009	-0.046	-0.056	0.121	0.119	0.316	0.725	0.737	1.191	2.007	1.920	0.037	-0.040	-0.138
0.168	18.994	-0.047	-0.057	0.128	0.120	0.263	0.728	0.749	1.174	2.006	1.922	0.039	-0.042	-0.133
0.168	18.997	-0.044	-0.057	0.130	0.118	0.254	0.707	0.776	1.179	2.009	1.915	0.041	-0.041	-0.133
0.168	18.988	-0.047	-0.057	0.133	0.114	0.244	0.713	0.747	1.196	2.010	1.916	0.040	-0.040	-0.129
0.169	18.994	-0.048	-0.057	0.135	0.110	0.223	0.699	0.714	1.151	2.007	1.921	0.042	-0.037	-0.126
0.169	18.991	-0.050	-0.056	0.136	0.108	0.230	0.693	0.670	1.141	2.008	1.926	0.041	-0.034	-0.122
0.169	18.997	-0.052	-0.057	0.136	0.106	0.241	0.683	0.662	1.205	2.002	1.920	0.045	-0.032	-0.116
0.169	18.991	-0.054	-0.058	0.133	0.102	0.258	0.657	0.666	1.258	1.994	1.923	0.045	-0.029	-0.111
0.169	18.973	-0.054	-0.060	0.135	0.097	0.257	0.647	0.686	1.249	2.005	1.924	0.045	-0.026	-0.106
0.170	18.997	-0.055	-0.058	0.132	0.096	0.244	0.643	0.690	1.232	2.007	1.914	0.047	-0.023	-0.100
0.170	19.003	-0.053	-0.058	0.129	0.090	0.253	0.630	0.691	1.238	1.996	1.916	0.045	-0.021	-0.094
0.170	18.988	-0.052	-0.058	0.122	0.087	0.255	0.625	0.653	1.231	2.002	1.922	0.048	-0.017	-0.089
0.170	18.994	-0.054	-0.053	0.117	0.083	0.263	0.623	0.657	1.204	1.997	1.918	0.048	-0.012	-0.084
0.170	19.003	-0.052	-0.052	0.114	0.080	0.278	0.610	0.667	1.203	2.007	1.921	0.049	-0.011	-0.079
0.171	19.012	-0.055	-0.051	0.105	0.078	0.288	0.614	0.704	1.216	2.001	1.920	0.053	-0.009	-0.075
0.171	18.991	-0.057	-0.049	0.096	0.075	0.307	0.611	0.737	1.227	2.001	1.918	0.054	-0.007	-0.070
0.171	19.009	-0.058	-0.047	0.090	0.075	0.322	0.619	0.749	1.241	2.001	1.919	0.056	-0.005	-0.067
0.171	19.006	-0.061	-0.046	0.080	0.075	0.322	0.611	0.757	1.262	1.996	1.916	0.059	-0.003	-0.060
0.171	19.031	-0.059	-0.043	0.072	0.073	0.347	0.604	0.719	1.260	1.990	1.918	0.061	-0.001	-0.059
0.172	19.022	-0.057	-0.042	0.063	0.070	0.352	0.594	0.723	1.210	2.001	1.918	0.063	0.005	-0.057
0.172	19.019	-0.053	-0.037	0.050	0.070	0.365	0.601	0.715	1.161	1.997	1.915	0.064	0.010	-0.053
0.172	19.028	-0.052	-0.034	0.042	0.066	0.364	0.608	0.756	1.153	1.992	1.916	0.068	0.013	-0.051
0.172	19.034	-0.048	-0.031	0.030	0.065	0.378	0.595	0.747	1.161	2.002	1.910	0.072	0.017	-0.048
0.172	19.052	-0.049	-0.026	0.023	0.062	0.379	0.604	0.762	1.167	1.996	1.910	0.073	0.023	-0.046
0.173	19.049	-0.047	-0.022	0.014	0.057	0.389	0.607	0.799	1.176	1.994	1.915	0.076	0.028	-0.044
0.173	19.049	-0.047	-0.015	0.006	0.052	0.401	0.635	0.821	1.179	2.004	1.903	0.078	0.034	-0.042
0.173	19.046	-0.046	-0.012	-0.002	0.043	0.403	0.648	0.881	1.177	1.985	1.906	0.081	0.043	-0.044
0.173	19.070	-0.044	-0.007	-0.007	0.035	0.426	0.670	0.881	1.153	1.996	1.912	0.082	0.044	-0.041
0.173	19.067	-0.042	-0.004	-0.015	0.028	0.429	0.674	0.878	1.111	1.998	1.903	0.086	0.050	-0.040
0.174	19.080	-0.036	-0.004	-0.022	0.019	0.431	0.663	0.908	1.103	2.000	1.903	0.087	0.055	-0.040
0.174	19.058	-0.032	-0.002	-0.029	0.011	0.429	0.671	0.930	1.093	1.992	1.908	0.091	0.060	-0.041
0.174	19.086	-0.027	0.003	-0.036	0.002	0.434	0.675	0.965	1.096	1.990	1.910	0.095	0.065	-0.042
0.174	19.049	-0.021	0.006	-0.042	-0.008	0.447	0.672	0.982	1.094	1.993	1.913	0.094	0.070	-0.043
0.174	19.101	-0.016	0.009	-0.051	-0.017	0.468	0.668	1.007	1.046	1.993	1.906	0.098	0.073	-0.044
0.175	19.104	-0.012	0.010	-0.058	-0.025	0.499	0.652	1.050	1.002	1.988	1.909	0.098	0.076	-0.045
0.175	19.086	-0.007	0.013	-0.066	-0.032	0.530	0.653	1.093	0.965	1.989	1.909	0.097	0.080	-0.047
0.175	19.098	-0.002	0.016	-0.074	-0.038	0.520	0.643	1.101	0.932	1.994	1.908	0.102	0.081	-0.048
0.175	19.107	0.005	0.020	-0.083	-0.041	0.524	0.639	1.130	0.975	1.988	1.901	0.102	0.083	-0.048
0.175	19.101	0.009	0.025	-0.091	-0.044	0.524	0.628	1.105	1.007	1.993	1.904	0.102	0.085	-0.047
0.176	19.104	0.013	0.027	-0.101	-0.044	0.524	0.625	1.150	1.013	1.988	1.902	0.103	0.086	-0.053
0.176	19.131	0.019	0.030	-0.107	-0.042	0.531	0.637	1.187	1.014	1.977	1.901	0.103	0.087	-0.055
0.176	19.125	0.021	0.030	-0.118	-0.040	0.549	0.630	1.199	0.979	1.988	1.902	0.103	0.086	-0.057
0.176	19.144	0.026	0.032	-0.127	-0.035	0.586	0.630	1.222	0.974	1.983	1.903	0.105	0.086	-0.060
0.176	19.147	0.029	0.033	-0.135	-0.030	0.584	0.627	1.184	0.961	1.984	1.902	0.104	0.085	-0.058
0.177	19.141	0.034	0.036	-0.143	-0.024	0.593	0.638	1.151	0.938	1.979	1.900	0.104	0.086	-0.062
0.177	19.144	0.037	0.038	-0.149	-0.016	0.639	0.641	1.142	0.961	1.980	1.894	0.103	0.081	-0.064
0.177	19.144	0.043	0.042	-0.151	-0.009	0.665	0.656	1.129	0.991	1.977	1.894	0.102	0.080	-0.066
0.177	19.168	0.047	0.044	-0.155	-0.002	0.682	0.657	1.169	0.986	1.973	1.906	0.102	0.078	-0.069
0.177	19.159	0.052	0.047	-0.156	0.005	0.694	0.655	1.186	0.970	1.973	1.903	0.098	0.076	-0.068
0.178	19.165	0.053	0.050	-0.158	0.015	0.700	0.651	1.212	0.968	1.978	1.899	0.100	0.074	-0.070
0.178	19.177	0.057	0.054	-0.159	0.020	0.713	0.644	1.229	0.977	1.971	1.903	0.100	0.072	-0.072
0.178	19.202	0.057	0.058	-0.159	0.025	0.720	0.631	1.193	1.025	1.972	1.890	0.101	0.069	-0.073
0.178	19.180	0.060	0.060	-0.158	0.029	0.726	0.621	1.186	1.058	1.977	1.895	0.098	0.068	-0.075
0.178	19.199	0.063	0.060	-0.157	0.033	0.784	0.595	1.171	1.079	1.984	1.891	0.097	0.064	-0.075
0.179	19.217	0.065	0.061	-0.154	0.034	0.799	0.573	1.160	1.117	1.980	1.895	0.096	0.067	-0.076
0.179	19.205	0.069	0.060	-0.152	0.034	0.827	0.566	1.142	1.127	1.982	1.894	0.095	0.059	-0.080
0.179	19.183	0.072	0.059	-0.146	0.035	0.838	0.547	1.134	1.105	1.976	1.896	0.092	0.057	-0.078
0.179	19.208	0.077	0.058	-0.142	0.038	0.817	0.533	1.116	1.093	1.976	1.886	0.093	0.055	-0.074
0.179	19.220	0.080	0.056	-0.136	0.032	0.813	0.561	1.084	1.047	1.980	1.897	0.092	0.051	-0.079
0.180	19.186	0.082	0.053	-0.125	0.031	0.802	0.553	1.059	1.059	1.980	1.898	0.087	0.051	-0.076
0.180	19.229	0.081	0.052	-0.117	0.027	0.792	0.559	1.044	1.094	1.974	1.897	0.089	0.045	-0.078
0.180	19.199	0.082	0.048	-0.106	0.021	0.825	0.533	1.033	1.102	1.982	1.891	0.084	0.044	-0.076
0.180	19.223	0.077	0.046	-0.097	0.020	0.829	0.516	1.039	1.129	1.966	1.890	0.086	0.041	-0.077
0.180	19.208	0.075	0.046	-0.086	0.015	0.841	0.507	1.029	1.147	1.972	1.890	0.083	0.039	-0.078
0.181	19.220	0.073	0.046	-0.072	0.015	0.829	0.485	1.011	1.185	1.976	1.898	0.084	0.033	-0.077
0.181	19.220	0.072	0.044	-0.062	0.007	0.792	0.483	0.991	1.181	1.972	1.888	0.079	0.034	-0.080
0.181	19.220	0.074	0.044	-0.046	0.006	0.756	0.492	0.962	1.200	1.975	1.888	0.077	0.029	-0.081
0.181	19.241	0.074	0.045	-0.033	-0.001	0.726	0.516	0.961	1.225	1.961	1.892	0.075	0.028	-0.086
0.181	19.226	0.073	0.045	-0.017	-0.004	0.702	0.535	0.953	1.221	1.978	1.892	0.072	0.025	-0.085
0.182	19.235	0.072	0.047	-0.002	-0.010	0.713	0.529	0.944	1.235	1.970	1.890	0.070	0.023	-0.091
0.182	19.229	0.068	0.049	0.011	-0.019	0.715	0.517	0.936	1.238	1.972	1.885	0.066	0.020	-0.096
0.182	19.241	0.063	0.052	0.027	-0.027	0.732	0.494	0.926	1.224	1.969	1.892	0.065	0.016	-0.100
0.182	19.250	0.057	0.055	0.043	-0.036	0.754	0.454	0.888	1.196	1.975	1.889	0.061	0.013	-0.105
0.182	19.263	0.052	0.057	0.055	-0.046	0.753	0.439	0.874	1.226	1.980	1.887	0.058	0.010	-0.110
0.183	19.260	0.047	0.059	0.064	-0.052	0.743	0.457	0.859	1.231	1.969	1.888	0.055	0.009	-0.115
0.183	19.254	0.045	0.062	0.075	-0.060	0.724	0.461	0.878	1.145	1.980	1.884	0.053	0.005	-0.119
0.183	19.254	0.045	0.063	0.086	-0.066	0.726	0.476	0.926	1.104	1.975	1.879	0.050	0.005	-0.123
0.183	19.266	0.043	0.065	0.091	-0.072	0.720	0.472	0.956	1.089	1.970	1.889	0.046	0.003	-0.128
0.183	19.272	0.041	0.065	0.094	-0.075	0.753	0.456	0.960	1.094	1.969	1.887	0.046	0.005	-0.131
0.184	19.275	0.040	0.065	0.099	-0.077	0.759	0.427	0.973	1.084	1.973	1.881	0.043	0.008	-0.135
0.184	19.284	0.036	0.064	0.103	-0.078	0.769	0.407	0.975	1.114	1.969	1.885	0.044	0.006	-0.138
0.184	19.266	0.034	0.061	0.103	-0.077	0.774	0.398	0.987	1.135	1.974	1.881	0.042	0.008	-0.143
0.184	19.266	0.032	0.060	0.101	-0.075	0.780	0.376	0.972	1.147	1.971	1.880	0.041	0.010	-0.142
0.184	19.275	0.030	0.058	0.100	-0.072	0.767	0.389	0.938	1.154	1.970	1.877	0.042	0.012	-0.142
0.185	19.269	0.028	0.058	0.098	-0.067	0.764	0.384	0.968	1.138	1.978	1.878	0.042	0.015	-0.141
0.185	19.257	0.028	0.055	0.096	-0.061	0.762	0.368	0.995	1.135	1.972	1.884	0.045	0.018	-0.140
0.185	19.278	0.031	0.060	0.093	-0.053	0.762	0.344	0.965	1.118	1.980	1.882	0.045	0.022	-0.138
0.185	19.293	0.029	0.063	0.089	-0.047	0.790	0.313	0.974	1.092	1.964	1.881	0.049	0.027	-0.136
0.185	19.284	0.031	0.063	0.085	-0.039	0.785	0.312	0.962	1.106	1.975	1.877	0.050	0.031	-0.131
0.186	19.278	0.029	0.064	0.079	-0.031	0.791	0.337	0.995	1.108	1.973	1.874	0.055	0.037	-0.126
0.186	19.293	0.032	0.069	0.073	-0.024	0.774	0.319	1.013	1.103	1.969	1.876	0.061	0.042	-0.121
0.186	19.284	0.031	0.074	0.066	-0.016	0.774	0.356	1.048	1.110	1.982	1.879	0.064	0.045	-0.114
0.186	19.293	0.027	0.073	0.058	-0.009	0.765	0.369	1.091	1.086	1.973	1.872	0.067	0.047	-0.108
0.186	19.299	0.027	0.072	0.051	-0.006	0.776	0.353	1.118	1.065	1.979	1.873	0.073	0.051	-0.100
0.187	19.284	0.031	0.072	0.042	0.001	0.814	0.312	1.150	1.027	1.975	1.876	0.077	0.052	-0.095
0.187	19.290	0.028	0.073	0.034	0.006	0.856	0.328	1.137	0.999	1.977	1.871	0.082	0.054	-0.084
0.187	19.284	0.028	0.072	0.023	0.009	0.862	0.350	1.089	0.960	1.980	1.880	0.087	0.057	-0.079
0.187	19.290	0.030	0.074	0.012	0.014	0.843	0.346	1.065	0.957	1.967	1.875	0.092	0.058	-0.072
0.187	19.299	0.031	0.075	0.001	0.015	0.831	0.368	1.052	0.923	1.964	1.876	0.097	0.057	-0.064
0.188	19.305	0.029	0.075	-0.012	0.018	0.802	0.379	1.043	0.910	1.972	1.878	0.102	0.057	-0.057
0.188	19.278	0.030	0.077	-0.024	0.018	0.814	0.386	1.075	0.870	1.972	1.872	0.104	0.057	-0.049
0.188	19.305	0.029	0.079	-0.037	0.017	0.828	0.376	1.091	0.858	1.972	1.882	0.107	0.055	-0.042
0.188	19.290	0.030	0.080	-0.052	0.016	0.853	0.380	1.095	0.837	1.975	1.879	0.111	0.053	-0.036
0.188	19.330	0.034	0.081	-0.066	0.012	0.895	0.368	1.094	0.838	1.980	1.873	0.116	0.049	-0.033
0.189	19.315	0.038	0.082	-0.081	0.006	0.908	0.384	1.089	0.895	1.979	1.870	0.119	0.045	-0.026
0.189	19.305	0.041	0.081	-0.098	0.002	0.901	0.380	1.069	0.947	1.976	1.873	0.123	0.044	-0.022
0.189	19.330	0.046	0.084	-0.112	-0.007	0.868	0.386	1.047	0.995	1.971	1.873	0.125	0.040	-0.020
0.189	19.296	0.049	0.084	-0.129	-0.012	0.844	0.378	1.033	1.038	1.966	1.880	0.127	0.038	-0.018
0.189	19.327	0.054	0.084	-0.147	-0.022	0.825	0.396	1.029	1.051	1.974	1.876	0.133	0.035	-0.017
0.190	19.293	0.057	0.085	-0.159	-0.032	0.826	0.409	1.079	1.032	1.971	1.870	0.133	0.033	-0.017
0.190	19.330	0.059	0.087	-0.176	-0.039	0.869	0.400	1.079	1.027	1.972	1.871	0.135	0.031	-0.017
0.190	19.302	0.061	0.088	-0.188	-0.052	0.928	0.403	1.047	1.013	1.973	1.867	0.138	0.029	-0.019
0.190	19.318	0.064	0.089	-0.202	-0.060	0.937	0.393	0.999	1.031	1.974	1.873	0.139	0.028	-0.022
0.190	19.321	0.067	0.091	-0.211	-0.070	0.874	0.387	0.919	1.082	1.971	1.873	0.138	0.027	-0.022
0.191	19.327	0.071	0.090	-0.222	-0.078	0.825	0.363	0.854	1.126	1.973	1.877	0.138	0.028	-0.026
0.191	19.330	0.075	0.089	-0.231	-0.087	0.778	0.361	0.844	1.137	1.978	1.871	0.137	0.029	-0.028
0.191	19.321	0.079	0.087	-0.239	-0.089	0.740	0.338	0.841	1.117	1.978	1.869	0.136	0.028	-0.031
0.191	19.342	0.079	0.086	-0.244	-0.092	0.752	0.337	0.868	1.064	1.973	1.863	0.136	0.030	-0.034
0.191	19.348	0.083	0.082	-0.250	-0.091	0.769	0.323	0.895	1.047	1.964	1.857	0.134	0.032	-0.036
0.192	19.354	0.085	0.080	-0.255	-0.087	0.790	0.312	0.876	1.030	1.973	1.855	0.131	0.035	-0.037
0.192	19.345	0.088	0.077	-0.258	-0.080	0.791	0.291	0.814	1.065	1.976	1.856	0.128	0.036	-0.042
0.192	19.336	0.094	0.074	-0.262	-0.069	0.784	0.266	0.735	1.154	1.964	1.861	0.125	0.040	-0.047
0.192	19.348	0.096	0.073	-0.261	-0.059	0.750	0.227	0.660	1.203	1.964	1.864	0.122	0.043	-0.049
0.192	19.351	0.101	0.070	-0.263	-0.044	0.743	0.191	0.644	1.265	1.972	1.870	0.117	0.043	-0.054
0.193	19.354	0.104	0.069	-0.262	-0.028	0.750	0.191	0.651	1.235	1.971	1.858	0.111	0.050	-0.055
0.193	19.339	0.106	0.067	-0.260	-0.013	0.764	0.183	0.680	1.184	1.972	1.862	0.110	0.052	-0.057
0.193	19.354	0.106	0.066	-0.256	0.002	0.787	0.194	0.688	1.167	1.966	1.857	0.102	0.055	-0.061
0.193	19.348	0.107	0.063	-0.251	0.017	0.815	0.202	0.644	1.159	1.969	1.859	0.097	0.058	-0.061
0.193	19.366	0.105	0.061	-0.245	0.033	0.810	0.196	0.592	1.216	1.968	1.856	0.092	0.061	-0.069
0.194	19.345	0.104	0.060	-0.238	0.047	0.800	0.194	0.538	1.308	1.967	1.864	0.087	0.062	-0.073
0.194	19.366	0.105	0.058	-0.230	0.059	0.784	0.185	0.505	1.324	1.968	1.867	0.083	0.062	-0.075
0.194	19.363	0.107	0.059	-0.220	0.073	0.755	0.197	0.505	1.321	1.970	1.853	0.077	0.064	-0.080
0.194	19.360	0.107	0.058	-0.209	0.084	0.779	0.198	0.507	1.272	1.973	1.862	0.074	0.064	-0.083
0.194	19.360	0.111	0.057	-0.197	0.093	0.775	0.207	0.545	1.217	1.981	1.860	0.070	0.065	-0.084
0.195	19.327	0.113	0.057	-0.183	0.098	0.805	0.230	0.549	1.173	1.974	1.860	0.067	0.064	-0.086
0.195	19.345	0.113	0.057	-0.165	0.101	0.816	0.256	0.557	1.166	1.973	1.853	0.066	0.066	-0.087
0.195	19.354	0.110	0.056	-0.150	0.103	0.837	0.249	0.522	1.217	1.967	1.852	0.059	0.066	-0.088
0.195	19.351	0.107	0.056	-0.132	0.100	0.841	0.258	0.474	1.264	1.964	1.857	0.059	0.069	-0.088
0.195	19.357	0.105	0.057	-0.116	0.094	0.847	0.272	0.422	1.286	1.968	1.853	0.058	0.068	-0.089
0.196	19.348	0.101	0.056	-0.096	0.091	0.866	0.265	0.426	1.244	1.973	1.849	0.059	0.065	-0.084
0.196	19.351	0.101	0.056	-0.082	0.081	0.887	0.269	0.435	1.215	1.962	1.858	0.059	0.068	-0.083
0.196	19.348	0.100	0.057	-0.066	0.072	0.918	0.262	0.473	1.168	1.964	1.860	0.059	0.063	-0.080
0.196	19.330	0.099	0.056	-0.053	0.062	0.955	0.229	0.524	1.098	1.964	1.854	0.060	0.066	-0.076
0.196	19.345	0.099	0.055	-0.043	0.052	0.962	0.234	0.512	1.094	1.972	1.861	0.064	0.064	-0.072
0.197	19.336	0.096	0.053	-0.032	0.042	0.970	0.220	0.545	1.141	1.966	1.857	0.063	0.064	-0.067
0.197	19.339	0.097	0.053	-0.025	0.034	0.980	0.204	0.526	1.179	1.963	1.857	0.065	0.065	-0.059
0.197	19.324	0.092	0.051	-0.019	0.028	0.981	0.218	0.509	1.202	1.959	1.851	0.068	0.064	-0.053
0.197	19.321	0.090	0.049	-0.014	0.021	1.005	0.194	0.502	1.196	1.972	1.857	0.069	0.064	-0.044
0.197	19.333	0.086	0.049	-0.011	0.017	1.029	0.191	0.492	1.169	1.968	1.856	0.073	0.064	-0.036
0.198	19.321	0.086	0.048	-0.010	0.015	1.058	0.189	0.524	1.135	1.968	1.851	0.074	0.064	-0.031
0.198	19.321	0.083	0.046	-0.011	0.014	1.080	0.149	0.581	1.130	1.959	1.848	0.075	0.063	-0.024
0.198	19.302	0.084	0.047	-0.014	0.015	1.086	0.151	0.570	1.113	1.971	1.844	0.078	0.061	-0.015
0.198	19.308	0.084	0.048	-0.017	0.019	1.063	0.143	0.549	1.156	1.963	1.850	0.081	0.061	-0.008
0.198	19.318	0.084	0.045	-0.023	0.024	1.050	0.121	0.516	1.205	1.961	1.848	0.083	0.060	-0.001
0.199	19.330	0.086	0.046	-0.030	0.032	1.048	0.154	0.474	1.244	1.964	1.859	0.086	0.056	0.006
0.199	19.324	0.086	0.043	-0.037	0.043	1.046	0.161	0.424	1.249	1.971	1.848	0.090	0.056	0.014
0.199	19.327	0.084	0.043	-0.046	0.053	1.039	0.133	0.402	1.225	1.970	1.854	0.092	0.059	0.018
0.199	19.333	0.081	0.043	-0.052	0.065	1.044	0.146	0.377	1.196	1.968	1.848	0.095	0.054	0.021
0.199	19.318	0.080	0.040	-0.063	0.079	1.044	0.144	0.383	1.219	1.966	1.855	0.095	0.053	0.031
0.200	19.333	0.078	0.041	-0.071	0.092	1.030	0.177	0.372	1.259	1.971	1.844	0.099	0.052	0.032
0.200	19.339	0.080	0.039	-0.081	0.103	1.009	0.190	0.356	1.348	1.965	1.844	0.101	0.050	0.041
0.200	19.333	0.080	0.039	-0.088	0.115	0.990	0.187	0.319	1.416	1.964	1.848	0.105	0.050	0.039
0.200	19.321	0.082	0.039	-0.096	0.124	0.990	0.186	0.289	1.417	1.963	1.849	0.108	0.050	0.041
0.200	19.333	0.082	0.041	-0.104	0.132	0.990	0.182	0.238	1.421	1.974	1.851	0.110	0.049	0.041
0.201	19.330	0.085	0.043	-0.114	0.139	0.980	0.166	0.205	1.404	1.975	1.843	0.115	0.050	0.039
0.201	19.321	0.088	0.046	-0.123	0.146	0.968	0.151	0.170	1.385	1.972	1.840	0.120	0.050	0.038
0.201	19.315	0.090	0.049	-0.132	0.150	0.980	0.153	0.169	1.369	1.965	1.845	0.124	0.050	0.033
0.201	19.324	0.092	0.051	-0.141	0.153	0.959	0.155	0.147	1.390	1.970	1.847	0.129	0.051	0.031
0.201	19.321	0.093	0.054	-0.149	0.155	0.919	0.168	0.143	1.406	1.974	1.838	0.132	0.054	0.023
0.202	19.324	0.093	0.058	-0.156	0.157	0.917	0.161	0.110	1.475	1.973	1.847	0.134	0.055	0.016
0.202	19.318	0.094	0.059	-0.163	0.156	0.904	0.159	0.058	1.495	1.961	1.845	0.137	0.056	0.010
0.202	19.308	0.096	0.063	-0.170	0.153	0.883	0.138	0.013	1.499	1.969	1.847	0.141	0.058	0.001
0.202	19.305	0.095	0.067	-0.176	0.149	0.858	0.125	-0.027	1.508	1.969	1.845	0.140	0.059	-0.006
0.202	19.321	0.095	0.072	-0.182	0.147	0.828	0.125	-0.041	1.502	1.964	1.849	0.144	0.061	-0.016
0.203	19.321	0.096	0.077	-0.183	0.143	0.816	0.143	-0.021	1.507	1.973	1.833	0.144	0.062	-0.024
0.203	19.293	0.095	0.081	-0.186	0.136	0.780	0.166	-0.012	1.523	1.971	1.841	0.142	0.063	-0.033
0.203	19.305	0.094	0.085	-0.190	0.129	0.754	0.191	-0.010	1.551	1.973	1.850	0.142	0.065	-0.043
0.203	19.299	0.094	0.087	-0.193	0.119	0.749	0.220	-0.022	1.584	1.982	1.845	0.142	0.061	-0.050
0.203	19.333	0.095	0.087	-0.195	0.109	0.748	0.225	-0.083	1.659	1.979	1.845	0.139	0.064	-0.058
0.204	19.290	0.095	0.088	-0.196	0.091	0.726	0.213	-0.101	1.656	1.967	1.838	0.136	0.062	-0.065
0.204	19.302	0.096	0.089	-0.196	0.078	0.748	0.198	-0.148	1.668	1.973	1.837	0.132	0.063	-0.071
0.204	19.318	0.095	0.089	-0.196	0.059	0.725	0.187	-0.141	1.653	1.973	1.848	0.128	0.061	-0.076
0.204	19.293	0.096	0.088	-0.196	0.039	0.731	0.181	-0.088	1.641	1.972	1.846	0.122	0.061	-0.079
0.204	19.312	0.096	0.088	-0.196	0.018	0.731	0.202	-0.071	1.633	1.973	1.835	0.118	0.061	-0.078
0.205	19.299	0.097	0.085	-0.195	-0.009	0.747	0.237	-0.035	1.607	1.964	1.836	0.112	0.060	-0.082
0.205	19.308	0.097	0.085	-0.192	-0.030	0.766	0.245	-0.043	1.638	1.974	1.841	0.107	0.059	-0.079
0.205	19.296	0.096	0.082	-0.192	-0.056	0.769	0.255	-0.066	1.654	1.976	1.840	0.103	0.058	-0.079
0.205	19.321	0.099	0.080	-0.190	-0.079	0.783	0.247	-0.061	1.628	1.976	1.847	0.098	0.057	-0.072
0.205	19.296	0.100	0.076	-0.190	-0.104	0.789	0.229	-0.089	1.596	1.969	1.846	0.094	0.056	-0.070
0.206	19.305	0.103	0.072	-0.189	-0.126	0.768	0.243	-0.074	1.583	1.978	1.837	0.088	0.057	-0.062
0.206	19.299	0.103	0.069	-0.188	-0.145	0.750	0.220	-0.049	1.579	1.978	1.836	0.085	0.057	-0.056
0.206	19.308	0.102	0.065	-0.191	-0.163	0.729	0.245	-0.070	1.597	1.979	1.832	0.080	0.061	-0.049
0.206	19.299	0.104	0.060	-0.191	-0.176	0.752	0.252	-0.066	1.593	1.971	1.833	0.078	0.060	-0.040
0.206	19.324	0.105	0.053	-0.192	-0.184	0.774	0.251	-0.129	1.642	1.976	1.840	0.075	0.060	-0.035
0.207	19.302	0.105	0.052	-0.198	-0.194	0.815	0.247	-0.135	1.683	1.976	1.835	0.070	0.060	-0.029
0.207	19.308	0.109	0.049	-0.199	-0.199	0.847	0.255	-0.168	1.687	1.972	1.838	0.071	0.062	-0.021
0.207	19.308	0.113	0.048	-0.205	-0.198	0.850	0.243	-0.204	1.627	1.979	1.833	0.069	0.062	-0.015
0.207	19.302	0.114	0.046	-0.211	-0.195	0.857	0.257	-0.193	1.654	1.976	1.830	0.069	0.064	-0.010
0.207	19.299	0.117	0.043	-0.219	-0.186	0.836	0.263	-0.208	1.685	1.973	1.836	0.067	0.065	-0.006
0.208	19.302	0.118	0.043	-0.226	-0.176	0.837	0.296	-0.222	1.680	1.977	1.832	0.067	0.064	-0.002
0.208	19.324	0.120	0.043	-0.232	-0.164	0.832	0.330	-0.238	1.704	1.973	1.838	0.067	0.066	0.001
0.208	19.321	0.119	0.043	-0.243	-0.149	0.845	0.346	-0.277	1.738	1.976	1.834	0.065	0.067	0.002
0.208	19.330	0.118	0.042	-0.250	-0.132	0.858	0.355	-0.324	1.761	1.976	1.835	0.066	0.067	0.002
0.208	19.318	0.116	0.042	-0.254	-0.115	0.870	0.338	-0.375	1.782	1.984	1.840	0.063	0.069	0.001
0.209	19.312	0.115	0.040	-0.260	-0.098	0.865	0.327	-0.419	1.796	1.983	1.837	0.064	0.067	-0.002
0.209	19.321	0.117	0.039	-0.266	-0.080	0.861	0.319	-0.407	1.817	1.977	1.833	0.066	0.066	-0.004
0.209	19.318	0.121	0.037	-0.271	-0.066	0.869	0.303	-0.417	1.816	1.975	1.830	0.066	0.063	-0.008
0.209	19.321	0.119	0.035	-0.272	-0.051	0.837	0.316	-0.424	1.829	1.974	1.834	0.068	0.063	-0.015
0.209	19.312	0.120	0.035	-0.273	-0.039	0.827	0.330	-0.402	1.808	1.970	1.831	0.069	0.060	-0.020
0.210	19.321	0.118	0.029	-0.271	-0.027	0.805	0.302	-0.421	1.832	1.974	1.829	0.070	0.058	-0.026
0.210	19.318	0.117	0.030	-0.269	-0.018	0.780	0.306	-0.493	1.859	1.978	1.828	0.070	0.056	-0.035
0.210	19.315	0.114	0.026	-0.263	-0.010	0.763	0.301	-0.536	1.882	1.977	1.831	0.072	0.054	-0.040
0.210	19.324	0.109	0.021	-0.256	-0.003	0.746	0.299	-0.536	1.872	1.973	1.832	0.072	0.051	-0.047
0.210	19.318	0.109	0.013	-0.249	0.001	0.741	0.276	-0.538	1.850	1.975	1.827	0.075	0.048	-0.052
0.211	19.345	0.105	0.010	-0.240	0.001	0.708	0.270	-0.524	1.840	1.977	1.824	0.081	0.046	-0.058
0.211	19.299	0.103	0.006	-0.231	0.004	0.688	0.267	-0.529	1.843	1.972	1.830	0.077	0.042	-0.063
0.211	19.333	0.099	-0.001	-0.220	0.002	0.647	0.281	-0.533	1.882	1.956	1.830	0.080	0.040	-0.068
0.211	19.302	0.100	-0.008	-0.210	0.001	0.655	0.272	-0.545	1.916	1.967	1.828	0.080	0.036	-0.072
0.211	19.324	0.098	-0.012	-0.199	-0.001	0.655	0.238	-0.523	1.961	1.965	1.822	0.081	0.036	-0.076
0.212	19.312	0.094	-0.017	-0.193	-0.003	0.659	0.243	-0.510	1.974	1.973	1.830	0.083	0.030	-0.079
0.212	19.321	0.091	-0.018	-0.185	-0.005	0.656	0.242	-0.463	1.981	1.970	1.829	0.081	0.027	-0.080
0.212	19.321	0.087	-0.021	-0.179	-0.006	0.652	0.226	-0.439	1.980	1.957	1.827	0.085	0.024	-0.080
0.212	19.305	0.083	-0.021	-0.173	-0.006	0.648	0.258	-0.402	1.959	1.966	1.823	0.086	0.021	-0.084
0.212	19.318	0.081	-0.022	-0.169	-0.004	0.630	0.256	-0.411	1.959	1.961	1.827	0.086	0.020	-0.084
0.213	19.333	0.078	-0.021	-0.166	-0.001	0.615	0.310	-0.459	1.965	1.969	1.823	0.087	0.017	-0.085
0.213	19.312	0.076	-0.022	-0.164	0.004	0.593	0.311	-0.476	1.973	1.966	1.816	0.087	0.016	-0.085
0.213	19.305	0.074	-0.023	-0.161	0.010	0.613	0.335	-0.462	1.972	1.963	1.823	0.087	0.015	-0.084
0.213	19.312	0.068	-0.025	-0.157	0.015	0.591	0.350	-0.409	1.945	1.965	1.824	0.089	0.013	-0.084
0.213	19.299	0.067	-0.025	-0.154	0.023	0.617	0.351	-0.343	1.887	1.972	1.818	0.085	0.014	-0.081
0.214	19.321	0.060	-0.026	-0.150	0.032	0.580	0.377	-0.326	1.868	1.967	1.819	0.086	0.015	-0.081
0.214	19.308	0.060	-0.026	-0.147	0.041	0.566	0.386	-0.308	1.821	1.951	1.818	0.084	0.019	-0.078
0.214	19.302	0.055	-0.026	-0.143	0.052	0.561	0.397	-0.324	1.856	1.966	1.820	0.083	0.021	-0.076
0.214	19.293	0.053	-0.027	-0.142	0.064	0.543	0.428	-0.336	1.850	1.971	1.824	0.082	0.023	-0.073
0.214	19.321	0.052	-0.025	-0.139	0.076	0.558	0.446	-0.319	1.867	1.964	1.819	0.081	0.027	-0.069
0.215	19.318	0.051	-0.024	-0.139	0.090	0.574	0.474	-0.271	1.805	1.965	1.817	0.079	0.032	-0.070
0.215	19.290	0.049	-0.023	-0.139	0.101	0.590	0.477	-0.252	1.745	1.966	1.824	0.077	0.036	-0.066
0.215	19.302	0.045	-0.022	-0.140	0.115	0.569	0.474	-0.240	1.721	1.959	1.824	0.078	0.042	-0.064
0.215	19.296	0.044	-0.022	-0.142	0.128	0.565	0.465	-0.241	1.674	1.961	1.824	0.074	0.046	-0.059
0.215	19.293	0.042	-0.024	-0.144	0.138	0.543	0.484	-0.283	1.690	1.956	1.824	0.073	0.052	-0.058
0.216	19.284	0.041	-0.025	-0.149	0.147	0.525	0.505	-0.316	1.741	1.957	1.818	0.071	0.057	-0.053
0.216	19.293	0.041	-0.025	-0.153	0.157	0.508	0.536	-0.341	1.790	1.965	1.818	0.071	0.063	-0.049
0.216	19.296	0.041	-0.026	-0.158	0.165	0.519	0.567	-0.322	1.817	1.952	1.812	0.067	0.069	-0.042
0.216	19.272	0.040	-0.025	-0.160	0.169	0.541	0.620	-0.284	1.792	1.945	1.815	0.066	0.073	-0.042
0.216	19.293	0.039	-0.024	-0.167	0.176	0.566	0.640	-0.242	1.729	1.963	1.814	0.064	0.077	-0.039
0.217	19.296	0.038	-0.020	-0.171	0.178	0.583	0.662	-0.201	1.697	1.964	1.816	0.063	0.081	-0.034
0.217	19.293	0.036	-0.016	-0.174	0.179	0.566	0.652	-0.213	1.689	1.966	1.815	0.062	0.086	-0.033
0.217	19.302	0.034	-0.012	-0.179	0.175	0.559	0.644	-0.247	1.697	1.957	1.822	0.061	0.086	-0.029
0.217	19.254	0.032	-0.007	-0.181	0.174	0.526	0.648	-0.265	1.711	1.963	1.821	0.060	0.090	-0.033
0.217	19.257	0.030	-0.003	-0.186	0.168	0.514	0.675	-0.289	1.781	1.954	1.817	0.058	0.087	-0.027
0.218	19.281	0.028	-0.002	-0.188	0.159	0.522	0.713	-0.302	1.813	1.961	1.825	0.058	0.086	-0.024
0.218	19.284	0.029	-0.001	-0.191	0.148	0.537	0.736	-0.284	1.816	1.946	1.815	0.057	0.087	-0.022
0.218	19.299	0.029	0.000	-0.192	0.136	0.568	0.744	-0.267	1.770	1.953	1.818	0.056	0.084	-0.022
0.218	19.290	0.030	0.000	-0.194	0.123	0.582	0.738	-0.254	1.772	1.952	1.825	0.055	0.082	-0.027
0.218	19.287	0.030	-0.000	-0.197	0.105	0.582	0.732	-0.281	1.795	1.964	1.822	0.055	0.079	-0.029
0.219	19.287	0.029	-0.001	-0.198	0.091	0.562	0.737	-0.316	1.790	1.949	1.821	0.054	0.076	-0.030
0.219	19.308	0.023	-0.001	-0.201	0.076	0.536	0.737	-0.341	1.793	1.946	1.810	0.056	0.075	-0.036
0.219	19.299	0.020	-0.002	-0.201	0.060	0.524	0.755	-0.324	1.839	1.954	1.815	0.055	0.064	-0.039
0.219	19.308	0.018	-0.004	-0.206	0.045	0.528	0.752	-0.304	1.875	1.962	1.815	0.051	0.064	-0.044
0.219	19.305	0.015	-0.001	-0.207	0.031	0.507	0.778	-0.269	1.830	1.948	1.815	0.050	0.061	-0.053
0.220	19.315	0.015	-0.002	-0.209	0.020	0.516	0.797	-0.265	1.820	1.952	1.815	0.049	0.056	-0.057
0.220	19.321	0.016	-0.003	-0.215	0.009	0.519	0.773	-0.263	1.798	1.951	1.819	0.049	0.050	-0.064
0.220	19.333	0.022	0.001	-0.221	-0.002	0.530	0.769	-0.286	1.789	1.936	1.805	0.049	0.048	-0.069
0.220	19.308	0.023	-0.000	-0.223	-0.011	0.525	0.746	-0.313	1.781	1.939	1.810	0.046	0.045	-0.077
0.220	19.330	0.025	-0.000	-0.224	-0.019	0.538	0.751	-0.329	1.786	1.952	1.813	0.047	0.042	-0.082
0.221	19.351	0.023	0.002	-0.226	-0.029	0.548	0.763	-0.340	1.806	1.948	1.819	0.043	0.039	-0.094
0.221	19.348	0.021	0.002	-0.225	-0.035	0.562	0.764	-0.311	1.820	1.950	1.820	0.043	0.036	-0.101
0.221	19.354	0.020	0.006	-0.228	-0.044	0.575	0.764	-0.306	1.801	1.953	1.810	0.040	0.037	-0.107
0.221	19.342	0.017	0.006	-0.229	-0.051	0.558	0.739	-0.283	1.782	1.948	1.814	0.041	0.034	-0.114
0.221	19.345	0.022	0.009	-0.231	-0.058	0.572	0.707	-0.308	1.796	1.956	1.814	0.038	0.035	-0.119
0.222	19.376	0.023	0.009	-0.230	-0.065	0.559	0.680	-0.316	1.802	1.953	1.818	0.038	0.033	-0.126
0.222	19.397	0.028	0.012	-0.232	-0.070	0.579	0.671	-0.331	1.780	1.946	1.814	0.036	0.037	-0.131
0.222	19.385	0.032	0.015	-0.234	-0.078	0.587	0.687	-0.299	1.749	1.951	1.810	0.036	0.037	-0.135
0.222	19.382	0.036	0.016	-0.234	-0.082	0.604	0.704	-0.231	1.737	1.946	1.813	0.034	0.038	-0.139
0.222	19.412	0.036	0.019	-0.235	-0.088	0.615	0.727	-0.207	1.686	1.945	1.811	0.033	0.040	-0.141
0.223	19.409	0.034	0.019	-0.234	-0.093	0.615	0.723	-0.191	1.650	1.950	1.814	0.030	0.044	-0.143
0.223	19.412	0.032	0.017	-0.233	-0.098	0.617	0.738	-0.165	1.647	1.951	1.817	0.031	0.046	-0.145
0.223	19.434	0.030	0.017	-0.230	-0.103	0.609	0.724	-0.129	1.665	1.944	1.813	0.030	0.050	-0.145
0.223	19.418	0.030	0.019	-0.230	-0.107	0.592	0.714	-0.145	1.680	1.945	1.813	0.027	0.053	-0.145
0.223	19.431	0.033	0.020	-0.228	-0.112	0.585	0.738	-0.141	1.662	1.944	1.807	0.029	0.056	-0.144
0.224	19.452	0.038	0.018	-0.228	-0.117	0.597	0.778	-0.104	1.666	1.953	1.801	0.031	0.060	-0.143
0.224	19.437	0.044	0.017	-0.226	-0.120	0.619	0.826	-0.059	1.646	1.944	1.799	0.033	0.064	-0.142
0.224	19.461	0.050	0.021	-0.227	-0.125	0.648	0.834	-0.015	1.628	1.951	1.815	0.036	0.065	-0.140
0.224	19.467	0.047	0.023	-0.225	-0.127	0.681	0.862	0.023	1.603	1.940	1.803	0.035	0.067	-0.140
0.224	19.479	0.045	0.022	-0.224	-0.129	0.707	0.874	0.075	1.584	1.939	1.811	0.037	0.069	-0.138
0.225	19.482	0.041	0.021	-0.222	-0.132	0.734	0.836	0.111	1.610	1.949	1.813	0.038	0.071	-0.133
0.225	19.461	0.042	0.021	-0.220	-0.134	0.742	0.795	0.158	1.611	1.943	1.813	0.040	0.071	-0.133
0.225	19.495	0.037	0.021	-0.217	-0.136	0.747	0.800	0.191	1.599	1.955	1.809	0.043	0.072	-0.131
0.225	19.467	0.035	0.017	-0.213	-0.137	0.740	0.831	0.218	1.601	1.950	1.807	0.045	0.071	-0.131
0.225	19.464	0.038	0.014	-0.208	-0.137	0.713	0.852	0.242	1.590	1.944	1.810	0.048	0.068	-0.131
0.226	19.467	0.041	0.011	-0.204	-0.139	0.699	0.858	0.281	1.572	1.942	1.805	0.050	0.067	-0.131
0.226	19.467	0.037	0.008	-0.199	-0.138	0.705	0.892	0.325	1.572	1.954	1.804	0.054	0.063	-0.132
0.226	19.485	0.035	0.007	-0.195	-0.140	0.677	0.906	0.367	1.576	1.950	1.810	0.057	0.058	-0.133
0.226	19.470	0.031	0.003	-0.189	-0.141	0.676	0.923	0.395	1.577	1.941	1.809	0.057	0.057	-0.133
0.226	19.489	0.027	0.000	-0.184	-0.142	0.676	0.925	0.402	1.567	1.938	1.807	0.058	0.051	-0.134
0.227	19.479	0.024	-0.004	-0.176	-0.143	0.690	0.931	0.401	1.542	1.943	1.805	0.060	0.046	-0.136
0.227	19.482	0.020	-0.007	-0.169	-0.142	0.669	0.951	0.397	1.514	1.958	1.804	0.060	0.041	-0.141
0.227	19.485	0.018	-0.010	-0.161	-0.141	0.668	0.958	0.383	1.464	1.946	1.812	0.063	0.034	-0.143
0.227	19.476	0.018	-0.015	-0.153	-0.141	0.639	0.991	0.361	1.435	1.947	1.809	0.064	0.028	-0.148
0.227	19.434	0.018	-0.019	-0.144	-0.140	0.619	1.009	0.355	1.431	1.952	1.808	0.065	0.023	-0.150
0.228	19.464	0.016	-0.023	-0.136	-0.136	0.586	1.025	0.338	1.467	1.948	1.811	0.066	0.017	-0.159
0.228	19.458	0.014	-0.027	-0.128	-0.132	0.558	1.026	0.323	1.470	1.951	1.806	0.066	0.012	-0.165
0.228	19.476	0.009	-0.032	-0.120	-0.128	0.558	1.026	0.305	1.479	1.949	1.807	0.067	0.007	-0.171
0.228	19.464	0.001	-0.036	-0.114	-0.123	0.536	1.021	0.296	1.474	1.944	1.815	0.068	0.002	-0.175
0.228	19.467	-0.006	-0.036	-0.107	-0.117	0.521	1.017	0.298	1.468	1.937	1.816	0.070	-0.003	-0.179
0.229	19.479	-0.013	-0.041	-0.099	-0.111	0.496	1.003	0.300	1.441	1.940	1.809	0.068	-0.007	-0.186
0.229	19.449	-0.017	-0.044	-0.094	-0.102	0.490	0.995	0.295	1.446	1.941	1.804	0.066	-0.010	-0.190
0.229	19.473	-0.024	-0.045	-0.089	-0.096	0.446	0.974	0.300	1.442	1.935	1.807	0.068	-0.011	-0.197
0.229	19.461	-0.020	-0.047	-0.085	-0.087	0.457	0.974	0.282	1.458	1.943	1.811	0.069	-0.016	-0.199
0.229	19.479	-0.018	-0.050	-0.080	-0.080	0.444	0.969	0.277	1.459	1.942	1.806	0.071	-0.015	-0.204
0.230	19.470	-0.020	-0.053	-0.075	-0.072	0.451	0.958	0.276	1.465	1.945	1.815	0.070	-0.020	-0.209
0.230	19.489	-0.022	-0.057	-0.070	-0.066	0.480	0.950	0.288	1.451	1.942	1.808	0.070	-0.017	-0.209
0.230	19.482	-0.027	-0.060	-0.066	-0.064	0.473	0.935	0.323	1.406	1.944	1.811	0.072	-0.018	-0.216
0.230	19.479	-0.033	-0.061	-0.061	-0.060	0.480	0.956	0.356	1.404	1.939	1.808	0.071	-0.015	-0.218
0.230	19.479	-0.039	-0.063	-0.056	-0.062	0.469	0.966	0.347	1.391	1.942	1.806	0.072	-0.015	-0.221
0.231	19.479	-0.044	-0.066	-0.052	-0.062	0.471	0.977	0.328	1.431	1.935	1.809	0.072	-0.013	-0.225
0.231	19.498	-0.047	-0.067	-0.048	-0.064	0.476	0.969	0.307	1.448	1.932	1.808	0.072	-0.011	-0.224
0.231	19.492	-0.048	-0.067	-0.042	-0.072	0.475	0.953	0.317	1.451	1.934	1.811	0.074	-0.010	-0.225
0.231	19.495	-0.047	-0.067	-0.040	-0.080	0.482	0.940	0.354	1.418	1.938	1.809	0.072	-0.006	-0.226
0.231	19.479	-0.047	-0.066	-0.038	-0.088	0.496	0.937	0.412	1.365	1.937	1.804	0.072	-0.005	-0.224
0.232	19.504	-0.049	-0.067	-0.035	-0.095	0.508	0.953	0.471	1.338	1.940	1.814	0.072	-0.003	-0.227
0.232	19.479	-0.053	-0.067	-0.035	-0.107	0.524	0.958	0.504	1.347	1.935	1.817	0.071	0.003	-0.227
0.232	19.501	-0.060	-0.066	-0.035	-0.117	0.548	0.981	0.528	1.345	1.935	1.813	0.071	0.001	-0.228
0.232	19.495	-0.066	-0.069	-0.034	-0.127	0.569	0.984	0.566	1.368	1.929	1.811	0.068	0.004	-0.226
0.232	19.498	-0.072	-0.070	-0.036	-0.136	0.584	0.969	0.584	1.393	1.931	1.811	0.069	0.004	-0.227
0.233	19.479	-0.072	-0.070	-0.040	-0.147	0.595	0.946	0.622	1.409	1.936	1.806	0.065	0.008	-0.226
0.233	19.482	-0.070	-0.070	-0.040	-0.155	0.613	0.911	0.671	1.375	1.927	1.810	0.063	0.006	-0.227
0.233	19.482	-0.068	-0.071	-0.040	-0.167	0.628	0.880	0.711	1.326	1.926	1.807	0.061	0.009	-0.226
0.233	19.479	-0.064	-0.072	-0.047	-0.175	0.647	0.860	0.760	1.274	1.935	1.807	0.059	0.008	-0.226
0.233	19.485	-0.064	-0.071	-0.049	-0.183	0.667	0.858	0.763	1.286	1.929	1.815	0.061	0.010	-0.225
0.234	19.473	-0.065	-0.070	-0.050	-0.190	0.705	0.871	0.736	1.296	1.935	1.805	0.059	0.012	-0.224
0.234	19.470	-0.071	-0.068	-0.050	-0.195	0.732	0.874	0.762	1.318	1.923	1.812	0.057	0.009	-0.224
0.234	19.485	-0.077	-0.069	-0.054	-0.204	0.766	0.869	0.816	1.297	1.936	1.805	0.054	0.008	-0.221
0.234	19.479	-0.080	-0.067	-0.056	-0.209	0.781	0.843	0.876	1.262	1.931	1.802	0.052	0.010	-0.220
0.234	19.489	-0.083	-0.066	-0.056	-0.214	0.808	0.836	0.934	1.203	1.934	1.809	0.050	0.006	-0.219
0.235	19.492	-0.081	-0.067	-0.056	-0.220	0.822	0.846	1.011	1.178	1.931	1.811	0.049	0.005	-0.215
0.235	19.473	-0.078	-0.071	-0.057	-0.225	0.809	0.868	1.042	1.159	1.929	1.812	0.047	0.005	-0.215
0.235	19.489	-0.075	-0.070	-0.057	-0.229	0.807	0.899	1.006	1.211	1.926	1.807	0.044	0.004	-0.213
0.235	19.479	-0.075	-0.067	-0.058	-0.233	0.789	0.937	0.970	1.251	1.931	1.808	0.044	0.003	-0.208
0.235	19.467	-0.075	-0.070	-0.058	-0.233	0.779	0.941	0.935	1.275	1.925	1.802	0.045	0.002	-0.205
0.236	19.467	-0.078	-0.069	-0.060	-0.234	0.769	0.918	0.907	1.265	1.920	1.811	0.042	0.001	-0.200
0.236	19.476	-0.076	-0.067	-0.059	-0.232	0.783	0.866	0.904	1.226	1.917	1.808	0.044	0.002	-0.195
0.236	19.467	-0.077	-0.064	-0.060	-0.229	0.798	0.849	0.905	1.156	1.919	1.804	0.041	-0.001	-0.191
0.236	19.473	-0.075	-0.065	-0.063	-0.223	0.815	0.812	0.899	1.098	1.913	1.808	0.040	-0.003	-0.185
0.236	19.461	-0.069	-0.065	-0.066	-0.216	0.843	0.838	0.920	1.084	1.919	1.806	0.040	-0.004	-0.180
0.237	19.446	-0.064	-0.065	-0.071	-0.209	0.849	0.896	0.882	1.077	1.929	1.814	0.039	-0.006	-0.175
0.237	19.458	-0.056	-0.065	-0.074	-0.197	0.861	0.900	0.865	1.154	1.926	1.809	0.040	-0.008	-0.168
0.237	19.461	-0.052	-0.067	-0.079	-0.187	0.853	0.910	0.838	1.214	1.917	1.807	0.041	-0.009	-0.164
0.237	19.467	-0.049	-0.070	-0.084	-0.173	0.832	0.882	0.827	1.259	1.924	1.811	0.040	-0.009	-0.158
0.237	19.467	-0.049	-0.072	-0.093	-0.159	0.809	0.843	0.838	1.237	1.916	1.803	0.041	-0.010	-0.154
0.238	19.473	-0.051	-0.073	-0.100	-0.143	0.789	0.822	0.847	1.197	1.920	1.803	0.042	-0.009	-0.152
0.238	19.452	-0.051	-0.074	-0.105	-0.126	0.784	0.800	0.869	1.186	1.913	1.805	0.042	-0.012	-0.147
0.238	19.464	-0.052	-0.074	-0.112	-0.107	0.799	0.833	0.864	1.152	1.912	1.807	0.045	-0.014	-0.144
0.238	19.458	-0.047	-0.076	-0.116	-0.090	0.805	0.849	0.844	1.155	1.922	1.805	0.047	-0.015	-0.140
0.238	19.476	-0.042	-0.076	-0.120	-0.076	0.816	0.897	0.781	1.197	1.914	1.805	0.049	-0.015	-0.141
0.239	19.464	-0.037	-0.075	-0.121	-0.062	0.780	0.914	0.737	1.226	1.918	1.809	0.052	-0.016	-0.141
0.239	19.492	-0.027	-0.077	-0.125	-0.050	0.765	0.892	0.682	1.250	1.919	1.798	0.054	-0.019	-0.142
0.239	19.446	-0.024	-0.077	-0.123	-0.039	0.738	0.880	0.669	1.247	1.917	1.801	0.057	-0.017	-0.143
0.239	19.479	-0.025	-0.076	-0.121	-0.031	0.693	0.884	0.680	1.214	1.910	1.804	0.064	-0.019	-0.147
0.239	19.455	-0.025	-0.076	-0.119	-0.026	0.712	0.882	0.734	1.178	1.914	1.802	0.064	-0.023	-0.148
0.240	19.479	-0.032	-0.077	-0.113	-0.022	0.695	0.895	0.764	1.205	1.910	1.805	0.068	-0.019	-0.153
0.240	19.504	-0.034	-0.077	-0.108	-0.019	0.691	0.922	0.749	1.219	1.922	1.806	0.070	-0.022	-0.157
0.240	19.452	-0.036	-0.080	-0.100	-0.017	0.699	0.913	0.731	1.253	1.919	1.808	0.074	-0.019	-0.163
0.240	19.476	-0.037	-0.080	-0.089	-0.017	0.680	0.912	0.710	1.292	1.915	1.810	0.077	-0.023	-0.169
0.240	19.467	-0.031	-0.083	-0.079	-0.016	0.657	0.880	0.692	1.322	1.914	1.805	0.079	-0.024	-0.170
0.241	19.464	-0.028	-0.085	-0.068	-0.018	0.623	0.861	0.681	1.320	1.914	1.807	0.081	-0.024	-0.175
0.241	19.470	-0.026	-0.087	-0.056	-0.019	0.582	0.850	0.701	1.283	1.915	1.801	0.082	-0.025	-0.177
0.241	19.449	-0.024	-0.088	-0.044	-0.021	0.574	0.859	0.703	1.241	1.911	1.807	0.084	-0.025	-0.180
0.241	19.479	-0.026	-0.091	-0.032	-0.023	0.545	0.889	0.726	1.200	1.916	1.799	0.083	-0.026	-0.184
0.241	19.449	-0.034	-0.094	-0.022	-0.023	0.534	0.893	0.716	1.197	1.907	1.801	0.084	-0.025	-0.188
0.242	19.464	-0.042	-0.098	-0.011	-0.022	0.528	0.892	0.678	1.207	1.913	1.801	0.084	-0.025	-0.190
0.242	19.443	-0.045	-0.102	-0.002	-0.021	0.523	0.894	0.669	1.217	1.914	1.805	0.083	-0.026	-0.190
0.242	19.485	-0.050	-0.104	0.005	-0.016	0.511	0.862	0.699	1.264	1.915	1.802	0.081	-0.024	-0.192
0.242	19.455	-0.051	-0.109	0.012	-0.013	0.508	0.858	0.750	1.249	1.918	1.803	0.078	-0.025	-0.191
0.242	19.473	-0.050	-0.113	0.018	-0.005	0.501	0.857	0.828	1.205	1.923	1.805	0.075	-0.024	-0.191
0.243	19.467	-0.046	-0.116	0.024	0.001	0.512	0.875	0.898	1.172	1.910	1.803	0.071	-0.022	-0.188
0.243	19.467	-0.046	-0.121	0.026	0.009	0.538	0.910	0.913	1.156	1.915	1.805	0.067	-0.023	-0.186
0.243	19.461	-0.051	-0.123	0.029	0.017	0.578	0.900	0.906	1.145	1.923	1.799	0.063	-0.018	-0.180
0.243	19.476	-0.054	-0.128	0.032	0.027	0.590	0.896	0.874	1.154	1.915	1.801	0.058	-0.018	-0.173
0.243	19.464	-0.064	-0.132	0.033	0.039	0.619	0.874	0.865	1.186	1.906	1.803	0.054	-0.015	-0.171
0.244	19.473	-0.073	-0.136	0.032	0.049	0.630	0.841	0.878	1.179	1.913	1.809	0.048	-0.012	-0.165
0.244	19.473	-0.076	-0.139	0.032	0.060	0.642	0.837	0.919	1.105	1.923	1.803	0.041	-0.010	-0.157
0.244	19.479	-0.076	-0.142	0.030	0.071	0.651	0.837	0.965	1.009	1.916	1.805	0.036	-0.005	-0.151
0.244	19.470	-0.074	-0.144	0.028	0.085	0.674	0.843	1.026	1.003	1.913	1.807	0.032	-0.004	-0.143
0.244	19.473	-0.070	-0.145	0.024	0.097	0.671	0.844	1.038	1.025	1.912	1.801	0.027	0.000	-0.137
0.245	19.461	-0.066	-0.145	0.022	0.111	0.704	0.838	1.018	1.034	1.920	1.801	0.023	0.005	-0.129
0.245	19.464	-0.065	-0.146	0.018	0.125	0.725	0.814	0.977	1.076	1.916	1.796	0.018	0.007	-0.124
0.245	19.467	-0.066	-0.147	0.015	0.138	0.766	0.775	0.949	1.084	1.915	1.802	0.015	0.010	-0.114
0.245	19.449	-0.068	-0.149	0.011	0.151	0.800	0.757	0.978	1.081	1.913	1.806	0.010	0.016	-0.106
0.245	19.467	-0.069	-0.148	0.006	0.162	0.815	0.725	1.026	1.031	1.910	1.802	0.008	0.018	-0.099
0.246	19.443	-0.070	-0.147	0.005	0.171	0.810	0.730	1.079	0.995	1.919	1.799	0.007	0.022	-0.094
0.246	19.443	-0.068	-0.145	0.000	0.178	0.797	0.722	1.080	0.996	1.916	1.806	0.005	0.022	-0.088
0.246	19.461	-0.065	-0.143	-0.004	0.182	0.778	0.717	1.052	1.033	1.913	1.807	0.005	0.026	-0.083
0.246	19.427	-0.059	-0.140	-0.011	0.185	0.802	0.699	0.969	1.104	1.922	1.801	0.004	0.028	-0.078
0.246	19.455	-0.052	-0.132	-0.016	0.182	0.829	0.671	0.893	1.178	1.917	1.807	0.005	0.032	-0.074
0.247	19.427	-0.049	-0.125	-0.017	0.178	0.858	0.639	0.868	1.187	1.919	1.798	0.002	0.033	-0.071
0.247	19.458	-0.046	-0.120	-0.019	0.172	0.888	0.608	0.871	1.179	1.918	1.803	0.006	0.033	-0.069
0.247	19.440	-0.046	-0.113	-0.021	0.163	0.893	0.581	0.912	1.119	1.923	1.801	0.006	0.038	-0.068
0.247	19.455	-0.045	-0.106	-0.023	0.150	0.901	0.579	1.009	1.069	1.918	1.814	0.006	0.035	-0.066
0.247	19.455	-0.045	-0.101	-0.026	0.137	0.910	0.574	1.047	1.074	1.916	1.805	0.007	0.033	-0.066
0.248	19.424	-0.043	-0.096	-0.028	0.121	0.918	0.554	1.021	1.106	1.919	1.799	0.008	0.032	-0.067
0.248	19.446	-0.041	-0.089	-0.029	0.104	0.936	0.520	0.949	1.177	1.921	1.800	0.009	0.031	-0.067
0.248	19.421	-0.037	-0.087	-0.032	0.086	0.954	0.490	0.881	1.213	1.917	1.799	0.010	0.030	-0.070
0.248	19.427	-0.033	-0.082	-0.032	0.069	0.959	0.465	0.844	1.250	1.921	1.803	0.011	0.028	-0.074
0.248	19.452	-0.029	-0.079	-0.031	0.052	0.962	0.449	0.791	1.198	1.922	1.806	0.008	0.025	-0.077
0.249	19.412	-0.029	-0.072	-0.035	0.036	0.961	0.456	0.795	1.184	1.921	1.811	0.010	0.023	-0.077
0.249	19.431	-0.029	-0.071	-0.039	0.021	0.945	0.496	0.836	1.184	1.917	1.800	0.013	0.020	-0.081
0.249	19.424	-0.029	-0.068	-0.040	0.007	0.941	0.514	0.861	1.200	1.922	1.802	0.012	0.017	-0.083
0.249	19.412	-0.033	-0.063	-0.042	-0.006	0.922	0.525	0.848	1.202	1.920	1.810	0.013	0.016	-0.088
0.249	19.409	-0.033	-0.060	-0.047	-0.017	0.923	0.544	0.780	1.202	1.923	1.803	0.011	0.011	-0.091
0.250	19.424	-0.033	-0.061	-0.052	-0.027	0.948	0.543	0.718	1.205	1.920	1.807	0.012	0.010	-0.094
0.250	19.431	-0.027	-0.062	-0.058	-0.038	0.918	0.532	0.679	1.246	1.920	1.809	0.012	0.008	-0.097
0.250	19.415	-0.017	-0.061	-0.064	-0.045	0.926	0.519	0.679	1.264	1.918	1.809	0.012	0.006	-0.100
0.250	19.418	-0.015	-0.064	-0.072	-0.054	0.887	0.547	0.738	1.272	1.914	1.806	0.013	0.005	-0.102
0.250	19.418	-0.011	-0.061	-0.079	-0.064	0.872	0.586	0.776	1.276	1.913	1.811	0.013	0.004	-0.102
0.251	19.424	-0.005	-0.062	-0.086	-0.070	0.809	0.597	0.789	1.280	1.917	1.808	0.014	0.005	-0.107
0.251	19.452	-0.000	-0.062	-0.091	-0.077	0.809	0.599	0.757	1.286	1.916	1.802	0.014	0.005	-0.107
0.251	19.434	-0.003	-0.061	-0.098	-0.085	0.817	0.618	0.710	1.305	1.914	1.802	0.016	0.006	-0.109
0.251	19.446	-0.002	-0.060	-0.107	-0.092	0.815	0.602	0.695	1.296	1.921	1.806	0.015	0.008	-0.109
