Comment:	20231003 sppedbump
Time	Vehicle Speed	FL Sprung acceleration	FR Sprung acceleration	RL Sprung acceleration	RR Sprung acceleration	FL Unsprung acceleration	FR Unsprung acceleration	RL Unsprung acceleration	RR Unsprung acceleration	Bellow pressure RL	Bellow pressure RR	Acceleration X	Acceleration Y	Acceleration Z
s	km/h	gn	gn	gn	gn	gn	gn	gn	gn	bar	bar	g	g	g
0.000	23.843	0.025	0.131	0.164	0.272	0.312	0.251	0.852	1.413	1.935	1.890	0.016	0.058	0.061
0.000	23.865	0.027	0.132	0.160	0.282	0.311	0.209	0.861	1.427	1.923	1.892	0.016	0.056	0.056
0.000	23.837	0.030	0.134	0.158	0.294	0.367	0.189	0.890	1.418	1.931	1.890	0.017	0.055	0.052
0.001	23.853	0.032	0.133	0.157	0.304	0.417	0.180	1.023	1.392	1.925	1.895	0.016	0.051	0.050
0.001	23.837	0.034	0.132	0.157	0.313	0.428	0.153	1.075	1.371	1.928	1.891	0.017	0.050	0.053
0.001	23.843	0.037	0.133	0.153	0.320	0.400	0.167	1.132	1.343	1.929	1.882	0.018	0.049	0.054
0.001	23.834	0.041	0.133	0.154	0.327	0.360	0.177	1.188	1.341	1.923	1.890	0.019	0.050	0.055
0.001	23.825	0.045	0.132	0.156	0.330	0.322	0.137	1.180	1.336	1.929	1.887	0.020	0.051	0.058
0.002	23.840	0.050	0.132	0.157	0.329	0.304	0.117	1.168	1.319	1.927	1.888	0.022	0.051	0.062
0.002	23.804	0.054	0.128	0.156	0.332	0.311	0.086	1.139	1.306	1.931	1.891	0.019	0.054	0.067
0.002	23.834	0.057	0.126	0.158	0.333	0.341	0.078	1.114	1.270	1.925	1.893	0.027	0.056	0.072
0.002	23.804	0.061	0.123	0.159	0.331	0.389	0.098	1.112	1.231	1.924	1.892	0.026	0.058	0.080
0.002	23.819	0.063	0.117	0.159	0.327	0.387	0.100	1.148	1.217	1.931	1.894	0.031	0.060	0.087
0.003	23.816	0.066	0.116	0.158	0.327	0.378	0.087	1.173	1.213	1.939	1.889	0.031	0.065	0.094
0.003	23.810	0.070	0.112	0.160	0.321	0.340	0.084	1.193	1.237	1.934	1.888	0.030	0.067	0.101
0.003	23.810	0.070	0.108	0.163	0.318	0.315	0.073	1.178	1.269	1.926	1.888	0.031	0.071	0.108
0.003	23.822	0.073	0.106	0.160	0.316	0.293	0.019	1.147	1.264	1.927	1.893	0.033	0.076	0.114
0.003	23.795	0.077	0.105	0.159	0.312	0.301	-0.024	1.143	1.293	1.925	1.891	0.033	0.080	0.121
0.004	23.804	0.075	0.103	0.159	0.312	0.339	-0.019	1.164	1.270	1.926	1.892	0.033	0.081	0.126
0.004	23.795	0.077	0.101	0.157	0.308	0.404	0.014	1.228	1.224	1.939	1.897	0.034	0.084	0.132
0.004	23.810	0.074	0.100	0.154	0.306	0.466	0.047	1.313	1.192	1.937	1.889	0.035	0.085	0.136
0.004	23.813	0.073	0.101	0.150	0.305	0.502	0.062	1.369	1.152	1.935	1.893	0.033	0.088	0.139
0.004	23.801	0.073	0.101	0.145	0.303	0.484	0.044	1.392	1.167	1.933	1.895	0.034	0.090	0.141
0.005	23.810	0.076	0.101	0.137	0.306	0.492	-0.002	1.403	1.187	1.930	1.893	0.035	0.091	0.143
0.005	23.792	0.077	0.101	0.130	0.306	0.460	-0.046	1.397	1.212	1.926	1.894	0.036	0.094	0.144
0.005	23.810	0.079	0.101	0.123	0.306	0.445	-0.092	1.417	1.211	1.929	1.890	0.037	0.093	0.140
0.005	23.813	0.080	0.101	0.114	0.307	0.486	-0.093	1.444	1.200	1.926	1.893	0.037	0.095	0.141
0.005	23.816	0.082	0.100	0.105	0.304	0.493	-0.099	1.520	1.144	1.927	1.894	0.038	0.095	0.138
0.006	23.810	0.082	0.103	0.097	0.303	0.559	-0.104	1.610	1.101	1.922	1.892	0.040	0.095	0.134
0.006	23.807	0.080	0.101	0.091	0.301	0.603	-0.112	1.649	1.060	1.928	1.898	0.040	0.096	0.132
0.006	23.843	0.078	0.101	0.084	0.295	0.627	-0.137	1.629	1.096	1.933	1.896	0.042	0.097	0.131
0.006	23.813	0.077	0.099	0.079	0.290	0.605	-0.179	1.548	1.129	1.942	1.885	0.043	0.097	0.129
0.006	23.828	0.074	0.100	0.073	0.280	0.563	-0.229	1.500	1.131	1.937	1.889	0.045	0.097	0.126
0.007	23.819	0.072	0.100	0.069	0.270	0.513	-0.228	1.460	1.104	1.941	1.902	0.046	0.098	0.125
0.007	23.831	0.072	0.100	0.067	0.266	0.524	-0.240	1.477	1.021	1.936	1.907	0.048	0.098	0.126
0.007	23.825	0.071	0.100	0.065	0.255	0.546	-0.233	1.515	0.953	1.936	1.899	0.048	0.097	0.122
0.007	23.831	0.069	0.098	0.063	0.246	0.603	-0.247	1.560	0.905	1.934	1.899	0.049	0.097	0.123
0.007	23.825	0.069	0.098	0.066	0.237	0.618	-0.235	1.561	0.933	1.935	1.897	0.050	0.096	0.122
0.008	23.837	0.069	0.094	0.065	0.230	0.631	-0.262	1.526	1.026	1.936	1.904	0.048	0.096	0.124
0.008	23.846	0.069	0.089	0.067	0.220	0.590	-0.259	1.501	1.108	1.935	1.897	0.048	0.093	0.123
0.008	23.834	0.068	0.087	0.073	0.212	0.555	-0.258	1.476	1.155	1.940	1.900	0.046	0.091	0.124
0.008	23.877	0.069	0.085	0.078	0.204	0.536	-0.277	1.517	1.144	1.939	1.898	0.042	0.088	0.125
0.008	23.840	0.066	0.082	0.084	0.198	0.523	-0.274	1.555	1.081	1.939	1.902	0.042	0.084	0.125
0.009	23.856	0.067	0.079	0.086	0.189	0.538	-0.271	1.613	1.042	1.938	1.894	0.039	0.081	0.125
0.009	23.856	0.064	0.080	0.091	0.182	0.582	-0.279	1.640	1.027	1.939	1.899	0.035	0.078	0.123
0.009	23.859	0.064	0.077	0.094	0.174	0.591	-0.292	1.656	1.045	1.935	1.901	0.032	0.072	0.124
0.009	23.856	0.062	0.079	0.097	0.167	0.589	-0.303	1.621	1.062	1.941	1.899	0.028	0.068	0.124
0.009	23.859	0.060	0.080	0.101	0.161	0.551	-0.314	1.585	1.076	1.943	1.898	0.025	0.064	0.124
0.010	23.868	0.059	0.081	0.103	0.154	0.509	-0.307	1.601	1.047	1.949	1.902	0.020	0.060	0.123
0.010	23.849	0.058	0.080	0.106	0.150	0.485	-0.324	1.619	0.997	1.943	1.900	0.018	0.054	0.123
0.010	23.856	0.055	0.082	0.109	0.146	0.500	-0.325	1.631	0.940	1.943	1.903	0.016	0.050	0.125
0.010	23.840	0.053	0.082	0.113	0.145	0.540	-0.340	1.624	0.924	1.943	1.897	0.014	0.047	0.125
0.010	23.843	0.051	0.081	0.115	0.145	0.549	-0.369	1.579	0.910	1.942	1.902	0.012	0.043	0.128
0.011	23.843	0.046	0.084	0.117	0.148	0.533	-0.372	1.583	0.910	1.932	1.905	0.012	0.040	0.128
0.011	23.837	0.045	0.085	0.120	0.151	0.534	-0.361	1.586	0.913	1.936	1.898	0.011	0.039	0.131
0.011	23.840	0.040	0.082	0.121	0.156	0.477	-0.352	1.615	0.926	1.941	1.902	0.015	0.039	0.136
0.011	23.859	0.039	0.089	0.122	0.163	0.465	-0.334	1.627	0.922	1.941	1.907	0.019	0.037	0.138
0.011	23.831	0.035	0.091	0.122	0.173	0.474	-0.296	1.616	0.932	1.940	1.898	0.018	0.038	0.143
0.012	23.849	0.031	0.090	0.121	0.183	0.507	-0.294	1.595	0.921	1.943	1.900	0.023	0.040	0.150
0.012	23.843	0.031	0.093	0.120	0.193	0.549	-0.324	1.575	0.920	1.942	1.898	0.028	0.041	0.156
0.012	23.846	0.029	0.091	0.117	0.207	0.573	-0.346	1.601	0.920	1.946	1.900	0.031	0.045	0.163
0.012	23.853	0.025	0.091	0.119	0.217	0.581	-0.354	1.623	0.913	1.940	1.909	0.037	0.047	0.170
0.012	23.837	0.023	0.088	0.118	0.229	0.580	-0.357	1.640	0.897	1.946	1.893	0.041	0.049	0.179
0.013	23.849	0.018	0.087	0.117	0.237	0.593	-0.339	1.676	0.899	1.946	1.900	0.046	0.052	0.187
0.013	23.837	0.014	0.087	0.117	0.244	0.572	-0.347	1.674	0.899	1.939	1.900	0.049	0.056	0.195
0.013	23.849	0.012	0.083	0.118	0.249	0.584	-0.341	1.677	0.886	1.945	1.898	0.056	0.056	0.202
0.013	23.849	0.006	0.082	0.118	0.251	0.606	-0.346	1.674	0.872	1.946	1.898	0.059	0.059	0.210
0.013	23.859	0.008	0.078	0.119	0.251	0.625	-0.340	1.661	0.836	1.947	1.901	0.063	0.061	0.219
0.014	23.849	0.004	0.077	0.120	0.248	0.616	-0.318	1.690	0.797	1.939	1.902	0.066	0.062	0.222
0.014	23.856	0.004	0.073	0.120	0.241	0.628	-0.287	1.716	0.778	1.942	1.901	0.067	0.065	0.229
0.014	23.874	0.003	0.071	0.124	0.230	0.622	-0.241	1.732	0.759	1.947	1.899	0.070	0.064	0.233
0.014	23.871	0.005	0.066	0.123	0.221	0.631	-0.216	1.723	0.761	1.943	1.898	0.071	0.068	0.237
0.014	23.853	0.004	0.064	0.126	0.208	0.645	-0.201	1.712	0.773	1.941	1.902	0.071	0.070	0.239
0.015	23.859	0.004	0.058	0.128	0.197	0.679	-0.201	1.694	0.803	1.944	1.903	0.074	0.072	0.241
0.015	23.898	0.007	0.054	0.129	0.189	0.706	-0.210	1.666	0.808	1.950	1.902	0.071	0.072	0.241
0.015	23.868	0.006	0.051	0.131	0.176	0.694	-0.238	1.677	0.814	1.947	1.902	0.071	0.074	0.238
0.015	23.849	0.005	0.047	0.131	0.166	0.691	-0.241	1.648	0.809	1.953	1.906	0.070	0.078	0.238
0.015	23.871	0.005	0.044	0.132	0.162	0.693	-0.227	1.657	0.843	1.951	1.905	0.068	0.081	0.237
0.016	23.886	0.007	0.043	0.131	0.160	0.718	-0.199	1.621	0.892	1.958	1.908	0.067	0.081	0.231
0.016	23.874	0.009	0.046	0.130	0.158	0.736	-0.174	1.636	0.923	1.951	1.902	0.066	0.083	0.227
0.016	23.877	0.010	0.046	0.129	0.161	0.761	-0.185	1.627	0.969	1.948	1.902	0.065	0.086	0.225
0.016	23.874	0.011	0.049	0.126	0.166	0.767	-0.185	1.648	0.975	1.939	1.905	0.062	0.089	0.220
0.016	23.853	0.013	0.052	0.128	0.175	0.751	-0.186	1.677	0.895	1.949	1.901	0.059	0.092	0.217
0.017	23.868	0.015	0.056	0.127	0.186	0.722	-0.184	1.706	0.846	1.948	1.902	0.057	0.095	0.213
0.017	23.853	0.018	0.059	0.129	0.202	0.696	-0.185	1.711	0.845	1.944	1.899	0.053	0.098	0.210
0.017	23.859	0.019	0.062	0.131	0.218	0.706	-0.196	1.658	0.858	1.941	1.906	0.051	0.100	0.208
0.017	23.859	0.023	0.063	0.136	0.237	0.717	-0.187	1.565	0.869	1.952	1.904	0.046	0.102	0.208
0.017	23.874	0.025	0.065	0.142	0.258	0.757	-0.179	1.493	0.920	1.953	1.906	0.045	0.103	0.208
0.018	23.871	0.026	0.068	0.145	0.279	0.766	-0.180	1.460	0.908	1.945	1.901	0.041	0.105	0.210
0.018	23.865	0.029	0.069	0.149	0.299	0.777	-0.169	1.491	0.858	1.946	1.898	0.037	0.103	0.209
0.018	23.856	0.031	0.069	0.156	0.320	0.765	-0.175	1.553	0.805	1.955	1.899	0.034	0.105	0.212
0.018	23.853	0.033	0.071	0.160	0.340	0.730	-0.160	1.580	0.761	1.954	1.894	0.029	0.105	0.215
0.018	23.877	0.035	0.070	0.163	0.358	0.702	-0.160	1.529	0.741	1.946	1.902	0.026	0.104	0.219
0.019	23.877	0.037	0.068	0.167	0.374	0.713	-0.165	1.503	0.761	1.951	1.900	0.021	0.105	0.223
0.019	23.874	0.038	0.066	0.169	0.388	0.725	-0.160	1.399	0.826	1.954	1.905	0.017	0.105	0.229
0.019	23.880	0.039	0.062	0.170	0.400	0.738	-0.180	1.341	0.859	1.947	1.901	0.014	0.102	0.235
0.019	23.886	0.040	0.059	0.167	0.411	0.740	-0.211	1.336	0.851	1.948	1.897	0.010	0.101	0.240
0.019	23.889	0.042	0.055	0.167	0.417	0.720	-0.260	1.355	0.827	1.953	1.904	0.006	0.101	0.246
0.020	23.880	0.044	0.048	0.164	0.422	0.704	-0.290	1.381	0.753	1.957	1.904	0.004	0.101	0.251
0.020	23.892	0.045	0.044	0.159	0.423	0.677	-0.296	1.397	0.742	1.947	1.901	0.005	0.101	0.255
0.020	23.883	0.049	0.041	0.153	0.425	0.684	-0.278	1.414	0.812	1.952	1.900	0.004	0.101	0.259
0.020	23.883	0.049	0.033	0.147	0.420	0.683	-0.210	1.381	0.918	1.953	1.903	0.006	0.101	0.261
0.020	23.880	0.053	0.028	0.141	0.415	0.705	-0.196	1.335	0.989	1.954	1.901	0.005	0.100	0.264
0.021	23.880	0.053	0.023	0.137	0.408	0.723	-0.175	1.306	1.065	1.956	1.901	0.007	0.104	0.265
0.021	23.874	0.053	0.022	0.133	0.399	0.728	-0.190	1.309	1.050	1.948	1.898	0.009	0.108	0.262
0.021	23.868	0.053	0.019	0.132	0.391	0.729	-0.233	1.323	0.996	1.958	1.896	0.012	0.108	0.262
0.021	23.874	0.051	0.018	0.130	0.378	0.717	-0.280	1.333	0.958	1.953	1.901	0.017	0.110	0.261
0.021	23.874	0.052	0.020	0.131	0.367	0.710	-0.263	1.300	0.898	1.961	1.900	0.021	0.110	0.256
0.022	23.862	0.053	0.019	0.129	0.356	0.694	-0.237	1.249	0.871	1.959	1.901	0.024	0.114	0.255
0.022	23.874	0.055	0.022	0.131	0.348	0.737	-0.196	1.199	0.859	1.961	1.902	0.031	0.115	0.246
0.022	23.859	0.058	0.024	0.133	0.337	0.778	-0.167	1.140	0.812	1.960	1.901	0.035	0.117	0.241
0.022	23.877	0.058	0.027	0.135	0.331	0.816	-0.150	1.134	0.799	1.965	1.904	0.039	0.118	0.235
0.022	23.871	0.059	0.029	0.137	0.324	0.827	-0.153	1.154	0.788	1.960	1.902	0.045	0.119	0.228
0.023	23.853	0.060	0.032	0.138	0.319	0.816	-0.171	1.195	0.831	1.962	1.907	0.051	0.118	0.222
0.023	23.874	0.060	0.034	0.139	0.317	0.813	-0.183	1.244	0.908	1.959	1.902	0.055	0.118	0.216
0.023	23.859	0.059	0.036	0.139	0.314	0.808	-0.151	1.274	0.928	1.970	1.895	0.062	0.118	0.210
0.023	23.865	0.059	0.037	0.138	0.315	0.812	-0.088	1.249	1.031	1.964	1.898	0.065	0.118	0.204
0.023	23.862	0.059	0.038	0.136	0.319	0.838	-0.020	1.203	1.101	1.966	1.904	0.068	0.116	0.199
0.024	23.868	0.061	0.037	0.132	0.318	0.858	0.025	1.138	1.117	1.966	1.897	0.072	0.113	0.193
0.024	23.868	0.060	0.036	0.123	0.321	0.878	0.043	1.127	1.093	1.969	1.900	0.076	0.113	0.190
0.024	23.853	0.060	0.036	0.118	0.322	0.878	0.020	1.149	1.078	1.966	1.901	0.078	0.111	0.188
0.024	23.868	0.060	0.035	0.110	0.322	0.873	-0.020	1.175	1.063	1.973	1.903	0.081	0.109	0.185
0.024	23.859	0.061	0.033	0.101	0.321	0.840	-0.032	1.183	1.028	1.968	1.904	0.083	0.107	0.183
0.025	23.837	0.057	0.032	0.093	0.320	0.819	-0.020	1.148	1.065	1.969	1.900	0.085	0.105	0.181
0.025	23.859	0.059	0.030	0.084	0.316	0.832	0.046	1.105	1.132	1.968	1.900	0.087	0.101	0.181
0.025	23.853	0.057	0.030	0.077	0.309	0.852	0.099	0.998	1.161	1.974	1.902	0.089	0.099	0.182
0.025	23.868	0.053	0.030	0.072	0.301	0.871	0.150	0.923	1.214	1.972	1.901	0.090	0.098	0.183
0.025	23.862	0.053	0.028	0.062	0.293	0.926	0.150	0.898	1.238	1.977	1.901	0.090	0.094	0.183
0.026	23.871	0.051	0.026	0.055	0.283	0.957	0.126	0.893	1.227	1.980	1.905	0.090	0.093	0.186
0.026	23.877	0.050	0.026	0.054	0.272	0.954	0.112	0.916	1.201	1.972	1.906	0.090	0.093	0.186
0.026	23.859	0.050	0.024	0.051	0.261	0.924	0.120	0.911	1.184	1.975	1.902	0.090	0.092	0.189
0.026	23.880	0.050	0.024	0.049	0.250	0.893	0.153	0.852	1.180	1.978	1.895	0.089	0.093	0.188
0.026	23.865	0.050	0.021	0.052	0.241	0.875	0.196	0.792	1.226	1.969	1.894	0.087	0.091	0.187
0.027	23.868	0.049	0.020	0.048	0.232	0.868	0.252	0.736	1.293	1.978	1.902	0.086	0.091	0.187
0.027	23.856	0.046	0.020	0.050	0.224	0.890	0.282	0.694	1.321	1.976	1.904	0.083	0.088	0.185
0.027	23.871	0.044	0.018	0.050	0.214	0.948	0.272	0.681	1.338	1.986	1.903	0.081	0.087	0.183
0.027	23.856	0.041	0.018	0.049	0.211	0.985	0.254	0.668	1.328	1.984	1.899	0.079	0.086	0.178
0.027	23.880	0.038	0.019	0.049	0.205	1.006	0.230	0.688	1.323	1.978	1.907	0.077	0.086	0.174
0.028	23.849	0.033	0.019	0.047	0.199	0.955	0.234	0.723	1.347	1.986	1.897	0.071	0.085	0.168
0.028	23.865	0.027	0.022	0.043	0.194	0.886	0.256	0.698	1.395	1.986	1.902	0.067	0.082	0.160
0.028	23.865	0.026	0.021	0.037	0.194	0.829	0.270	0.604	1.477	1.982	1.902	0.061	0.082	0.154
0.028	23.853	0.024	0.019	0.032	0.193	0.789	0.284	0.487	1.542	1.992	1.902	0.058	0.078	0.146
0.028	23.874	0.023	0.023	0.029	0.194	0.822	0.262	0.409	1.574	1.984	1.897	0.055	0.077	0.138
0.029	23.862	0.018	0.022	0.027	0.194	0.865	0.257	0.351	1.547	1.987	1.895	0.050	0.074	0.131
0.029	23.859	0.014	0.023	0.026	0.196	0.908	0.230	0.331	1.466	1.982	1.901	0.046	0.072	0.122
0.029	23.877	0.009	0.024	0.027	0.196	0.940	0.222	0.344	1.419	1.984	1.897	0.043	0.070	0.112
0.029	23.871	0.002	0.026	0.030	0.196	0.932	0.242	0.352	1.409	1.990	1.895	0.040	0.069	0.104
0.029	23.886	-0.003	0.026	0.034	0.195	0.858	0.293	0.339	1.478	1.998	1.901	0.038	0.068	0.096
0.030	23.871	-0.004	0.026	0.041	0.192	0.814	0.352	0.327	1.555	1.996	1.908	0.035	0.068	0.092
0.030	23.862	-0.011	0.028	0.052	0.188	0.795	0.413	0.289	1.669	1.988	1.909	0.035	0.067	0.087
0.030	23.880	-0.013	0.028	0.064	0.182	0.786	0.433	0.279	1.747	1.989	1.897	0.033	0.069	0.084
0.030	23.868	-0.018	0.028	0.081	0.174	0.824	0.422	0.272	1.769	1.993	1.903	0.035	0.069	0.081
0.030	23.877	-0.022	0.027	0.097	0.164	0.850	0.363	0.295	1.753	2.006	1.904	0.036	0.070	0.081
0.031	23.907	-0.024	0.026	0.114	0.155	0.843	0.306	0.256	1.723	2.003	1.899	0.040	0.072	0.083
0.031	23.889	-0.030	0.026	0.129	0.148	0.808	0.271	0.207	1.753	1.993	1.900	0.044	0.075	0.087
0.031	23.886	-0.033	0.027	0.144	0.140	0.831	0.300	0.156	1.745	1.991	1.896	0.048	0.079	0.088
0.031	23.880	-0.037	0.024	0.158	0.132	0.868	0.332	0.074	1.736	1.989	1.894	0.052	0.084	0.099
0.031	23.895	-0.039	0.022	0.168	0.125	0.856	0.376	0.050	1.682	1.996	1.897	0.059	0.090	0.104
0.032	23.874	-0.042	0.024	0.174	0.122	0.878	0.462	0.065	1.600	1.995	1.899	0.066	0.095	0.111
0.032	23.886	-0.045	0.021	0.177	0.124	0.890	0.457	0.093	1.539	2.002	1.898	0.072	0.102	0.121
0.032	23.898	-0.048	0.018	0.176	0.125	0.892	0.463	0.095	1.540	2.002	1.901	0.082	0.108	0.129
0.032	23.895	-0.049	0.014	0.168	0.126	0.897	0.404	0.093	1.591	2.000	1.896	0.086	0.113	0.138
0.032	23.886	-0.052	0.011	0.158	0.135	0.887	0.354	0.051	1.641	2.000	1.900	0.094	0.118	0.145
0.033	23.892	-0.057	0.008	0.145	0.145	0.881	0.339	0.041	1.701	2.001	1.894	0.098	0.122	0.154
0.033	23.907	-0.061	0.004	0.126	0.151	0.884	0.362	0.036	1.722	2.003	1.895	0.104	0.123	0.158
0.033	23.877	-0.063	-0.002	0.105	0.162	0.893	0.397	0.038	1.660	1.993	1.896	0.107	0.123	0.162
0.033	23.895	-0.063	-0.002	0.083	0.168	0.894	0.446	0.072	1.646	2.003	1.900	0.110	0.123	0.165
0.033	23.871	-0.067	-0.003	0.058	0.177	0.894	0.472	0.053	1.590	2.004	1.904	0.112	0.118	0.166
0.034	23.886	-0.069	-0.004	0.032	0.183	0.907	0.494	0.011	1.569	2.008	1.900	0.114	0.113	0.167
0.034	23.889	-0.070	-0.002	0.008	0.186	0.894	0.476	-0.056	1.593	2.005	1.901	0.114	0.107	0.165
0.034	23.877	-0.070	0.003	-0.014	0.187	0.913	0.465	-0.093	1.587	2.000	1.903	0.112	0.100	0.164
0.034	23.880	-0.073	0.011	-0.033	0.187	0.954	0.436	-0.087	1.574	2.002	1.904	0.110	0.092	0.158
0.034	23.889	-0.075	0.018	-0.052	0.181	0.995	0.425	-0.076	1.560	2.008	1.899	0.106	0.084	0.154
0.035	23.926	-0.075	0.026	-0.067	0.173	1.031	0.444	-0.047	1.542	2.008	1.893	0.103	0.076	0.150
0.035	23.880	-0.076	0.032	-0.076	0.162	1.039	0.468	-0.002	1.561	2.006	1.900	0.097	0.066	0.145
0.035	23.883	-0.076	0.036	-0.083	0.150	1.028	0.507	-0.004	1.589	2.002	1.903	0.095	0.059	0.139
0.035	23.883	-0.075	0.039	-0.085	0.136	0.997	0.530	-0.047	1.623	2.009	1.902	0.089	0.055	0.134
0.035	23.883	-0.076	0.043	-0.083	0.118	0.954	0.528	-0.121	1.690	1.999	1.898	0.083	0.052	0.129
0.036	23.877	-0.076	0.040	-0.082	0.102	0.937	0.506	-0.186	1.735	2.009	1.901	0.079	0.048	0.125
0.036	23.901	-0.075	0.040	-0.079	0.086	0.948	0.485	-0.242	1.761	2.008	1.895	0.074	0.048	0.121
0.036	23.877	-0.075	0.039	-0.073	0.070	0.990	0.465	-0.267	1.746	2.003	1.897	0.070	0.046	0.117
0.036	23.868	-0.075	0.035	-0.069	0.060	1.037	0.458	-0.277	1.736	2.006	1.897	0.066	0.048	0.114
0.036	23.868	-0.077	0.033	-0.066	0.050	1.051	0.471	-0.283	1.726	2.012	1.896	0.063	0.052	0.109
0.037	23.849	-0.074	0.029	-0.063	0.044	1.066	0.483	-0.303	1.743	2.011	1.904	0.058	0.057	0.110
0.037	23.865	-0.075	0.024	-0.063	0.041	1.052	0.504	-0.356	1.778	2.010	1.903	0.058	0.063	0.108
0.037	23.862	-0.072	0.024	-0.063	0.045	1.033	0.487	-0.427	1.833	2.008	1.897	0.058	0.071	0.106
0.037	23.859	-0.070	0.021	-0.062	0.050	1.014	0.513	-0.448	1.880	2.011	1.899	0.052	0.081	0.105
0.037	23.865	-0.068	0.019	-0.065	0.060	1.021	0.505	-0.436	1.928	2.015	1.901	0.049	0.091	0.105
0.038	23.874	-0.065	0.017	-0.068	0.077	1.040	0.506	-0.436	1.951	2.005	1.903	0.045	0.098	0.105
0.038	23.846	-0.067	0.016	-0.074	0.095	1.044	0.528	-0.419	1.951	2.003	1.902	0.045	0.107	0.105
0.038	23.837	-0.063	0.012	-0.074	0.117	1.021	0.547	-0.422	1.952	2.013	1.898	0.042	0.114	0.106
0.038	23.849	-0.063	0.007	-0.076	0.138	0.974	0.578	-0.462	1.983	2.008	1.900	0.041	0.121	0.109
0.038	23.849	-0.066	0.005	-0.079	0.163	0.941	0.625	-0.536	2.008	2.006	1.900	0.037	0.128	0.109
0.039	23.856	-0.065	0.002	-0.077	0.187	0.895	0.665	-0.645	2.015	2.020	1.897	0.034	0.132	0.111
0.039	23.859	-0.062	-0.002	-0.074	0.212	0.904	0.652	-0.714	2.024	2.020	1.892	0.028	0.135	0.113
0.039	23.834	-0.062	-0.005	-0.072	0.235	0.911	0.651	-0.716	2.001	2.015	1.900	0.024	0.137	0.112
0.039	23.859	-0.058	-0.008	-0.065	0.254	0.945	0.645	-0.683	1.962	2.008	1.903	0.019	0.140	0.117
0.039	23.849	-0.052	-0.009	-0.057	0.273	0.956	0.654	-0.642	1.938	2.013	1.902	0.015	0.137	0.118
0.040	23.849	-0.047	-0.010	-0.047	0.286	0.928	0.666	-0.627	1.947	2.014	1.899	0.009	0.133	0.119
0.040	23.843	-0.046	-0.012	-0.031	0.296	0.877	0.699	-0.654	1.964	2.016	1.897	0.004	0.129	0.119
0.040	23.859	-0.045	-0.013	-0.016	0.300	0.810	0.714	-0.711	1.989	2.013	1.902	-0.001	0.125	0.117
0.040	23.834	-0.045	-0.014	0.000	0.302	0.771	0.726	-0.792	2.015	2.015	1.898	-0.006	0.119	0.116
0.040	23.828	-0.047	-0.013	0.019	0.301	0.752	0.739	-0.832	1.998	2.012	1.899	-0.007	0.113	0.113
0.041	23.853	-0.044	-0.012	0.039	0.299	0.779	0.736	-0.838	1.972	2.020	1.905	-0.007	0.105	0.111
0.041	23.831	-0.041	-0.013	0.058	0.294	0.848	0.727	-0.811	1.915	2.013	1.899	-0.012	0.095	0.108
0.041	23.813	-0.038	-0.014	0.075	0.289	0.877	0.731	-0.785	1.877	2.014	1.897	-0.011	0.095	0.101
0.041	23.819	-0.035	-0.014	0.094	0.278	0.845	0.761	-0.768	1.851	2.012	1.899	-0.011	0.089	0.095
0.041	23.813	-0.031	-0.017	0.111	0.270	0.787	0.753	-0.769	1.886	2.019	1.902	-0.009	0.084	0.088
0.042	23.840	-0.029	-0.017	0.123	0.260	0.692	0.767	-0.810	1.943	2.021	1.905	-0.004	0.079	0.075
0.042	23.816	-0.027	-0.016	0.136	0.250	0.656	0.753	-0.819	1.925	2.023	1.899	0.000	0.077	0.071
0.042	23.831	-0.026	-0.016	0.145	0.239	0.666	0.746	-0.797	1.894	2.019	1.901	0.006	0.074	0.063
0.042	23.813	-0.025	-0.015	0.156	0.228	0.716	0.736	-0.739	1.842	2.018	1.900	0.011	0.072	0.056
0.042	23.813	-0.025	-0.016	0.159	0.220	0.774	0.738	-0.684	1.745	2.019	1.897	0.017	0.071	0.045
0.043	23.825	-0.026	-0.017	0.164	0.212	0.790	0.742	-0.633	1.720	2.020	1.901	0.025	0.070	0.038
0.043	23.828	-0.024	-0.016	0.163	0.205	0.766	0.769	-0.671	1.756	2.022	1.897	0.033	0.071	0.032
0.043	23.819	-0.025	-0.017	0.167	0.203	0.693	0.799	-0.755	1.760	2.024	1.900	0.042	0.070	0.027
0.043	23.834	-0.023	-0.018	0.169	0.203	0.655	0.824	-0.778	1.746	2.016	1.903	0.049	0.071	0.023
0.043	23.828	-0.022	-0.018	0.169	0.205	0.633	0.836	-0.760	1.765	2.017	1.907	0.058	0.070	0.021
0.044	23.831	-0.020	-0.019	0.169	0.209	0.677	0.840	-0.686	1.783	2.021	1.907	0.066	0.072	0.021
0.044	23.834	-0.021	-0.021	0.175	0.217	0.742	0.834	-0.611	1.785	2.021	1.898	0.073	0.074	0.023
0.044	23.822	-0.020	-0.018	0.181	0.225	0.812	0.857	-0.559	1.805	2.021	1.907	0.080	0.072	0.024
0.044	23.828	-0.020	-0.020	0.186	0.237	0.852	0.875	-0.529	1.833	2.015	1.901	0.085	0.073	0.029
0.044	23.837	-0.020	-0.019	0.191	0.250	0.848	0.895	-0.584	1.828	2.023	1.897	0.091	0.072	0.036
0.045	23.853	-0.021	-0.019	0.199	0.265	0.820	0.911	-0.615	1.829	2.018	1.901	0.097	0.070	0.043
0.045	23.862	-0.023	-0.020	0.206	0.282	0.777	0.919	-0.630	1.774	2.018	1.898	0.099	0.069	0.051
0.045	23.859	-0.025	-0.017	0.213	0.297	0.760	0.908	-0.645	1.719	2.021	1.904	0.103	0.067	0.059
0.045	23.871	-0.024	-0.022	0.220	0.312	0.769	0.904	-0.594	1.682	2.023	1.901	0.104	0.066	0.067
0.045	23.874	-0.023	-0.024	0.225	0.326	0.790	0.897	-0.572	1.662	2.028	1.905	0.108	0.063	0.077
0.046	23.874	-0.024	-0.024	0.228	0.340	0.804	0.910	-0.592	1.641	2.022	1.895	0.110	0.061	0.084
0.046	23.895	-0.020	-0.027	0.227	0.349	0.834	0.926	-0.625	1.629	2.026	1.903	0.109	0.056	0.093
0.046	23.877	-0.021	-0.029	0.224	0.355	0.809	0.931	-0.639	1.638	2.027	1.905	0.109	0.053	0.097
0.046	23.883	-0.023	-0.032	0.218	0.358	0.787	0.957	-0.645	1.672	2.018	1.898	0.106	0.049	0.102
0.046	23.911	-0.027	-0.035	0.208	0.358	0.751	0.959	-0.601	1.716	2.022	1.896	0.104	0.045	0.106
0.047	23.901	-0.027	-0.040	0.194	0.356	0.720	0.933	-0.583	1.746	2.026	1.900	0.102	0.042	0.108
0.047	23.892	-0.029	-0.041	0.179	0.350	0.736	0.909	-0.508	1.794	2.022	1.898	0.098	0.040	0.107
0.047	23.911	-0.031	-0.044	0.165	0.343	0.754	0.916	-0.505	1.832	2.022	1.904	0.094	0.036	0.105
0.047	23.917	-0.032	-0.044	0.148	0.335	0.802	0.949	-0.538	1.831	2.016	1.907	0.090	0.032	0.103
0.047	23.901	-0.034	-0.046	0.130	0.328	0.815	0.973	-0.583	1.809	2.021	1.901	0.085	0.029	0.096
0.048	23.914	-0.035	-0.049	0.111	0.321	0.815	0.993	-0.666	1.745	2.027	1.902	0.079	0.026	0.089
0.048	23.920	-0.037	-0.052	0.094	0.317	0.802	0.995	-0.700	1.711	2.028	1.896	0.073	0.024	0.082
0.048	23.929	-0.041	-0.052	0.076	0.317	0.820	1.008	-0.664	1.701	2.025	1.909	0.067	0.021	0.074
0.048	23.944	-0.044	-0.051	0.062	0.317	0.828	1.002	-0.623	1.730	2.023	1.896	0.060	0.019	0.064
0.048	23.932	-0.048	-0.051	0.050	0.320	0.844	0.972	-0.613	1.783	2.030	1.908	0.053	0.017	0.056
0.049	23.969	-0.050	-0.049	0.038	0.324	0.823	0.989	-0.602	1.887	2.033	1.909	0.048	0.016	0.046
0.049	23.947	-0.053	-0.047	0.028	0.326	0.808	1.004	-0.568	1.942	2.024	1.908	0.041	0.015	0.039
0.049	23.950	-0.055	-0.047	0.020	0.331	0.786	1.007	-0.553	1.916	2.034	1.909	0.036	0.013	0.032
0.049	23.941	-0.057	-0.047	0.013	0.333	0.795	1.008	-0.558	1.907	2.031	1.902	0.029	0.012	0.028
0.049	23.953	-0.061	-0.044	0.006	0.336	0.802	1.011	-0.553	1.875	2.024	1.899	0.026	0.012	0.023
0.050	23.972	-0.065	-0.042	-0.002	0.339	0.809	0.993	-0.540	1.884	2.019	1.903	0.021	0.015	0.021
0.050	23.953	-0.067	-0.039	-0.005	0.338	0.822	0.963	-0.541	1.877	2.023	1.910	0.018	0.015	0.022
0.050	23.950	-0.072	-0.039	-0.012	0.334	0.841	0.955	-0.519	1.874	2.028	1.905	0.014	0.017	0.023
0.050	23.965	-0.073	-0.037	-0.015	0.323	0.857	0.962	-0.550	1.865	2.025	1.899	0.012	0.019	0.028
0.050	23.969	-0.075	-0.038	-0.018	0.312	0.840	0.994	-0.580	1.801	2.020	1.903	0.009	0.020	0.032
0.051	23.990	-0.076	-0.038	-0.022	0.299	0.826	1.005	-0.559	1.777	2.022	1.901	0.005	0.025	0.040
0.051	23.975	-0.076	-0.038	-0.025	0.281	0.848	1.025	-0.493	1.734	2.024	1.902	0.005	0.025	0.048
0.051	23.969	-0.075	-0.040	-0.026	0.263	0.883	0.995	-0.417	1.728	2.026	1.901	0.002	0.028	0.058
0.051	23.981	-0.080	-0.040	-0.029	0.242	0.858	0.972	-0.327	1.798	2.020	1.907	0.002	0.031	0.067
0.051	23.978	-0.079	-0.041	-0.031	0.219	0.897	0.917	-0.289	1.871	2.021	1.901	-0.000	0.032	0.077
0.052	23.975	-0.083	-0.048	-0.030	0.197	0.887	0.901	-0.287	1.855	2.021	1.900	0.001	0.035	0.088
0.052	23.984	-0.085	-0.046	-0.026	0.172	0.856	0.900	-0.277	1.818	2.021	1.911	-0.001	0.038	0.096
0.052	23.978	-0.085	-0.051	-0.028	0.148	0.859	0.917	-0.335	1.767	2.019	1.904	-0.003	0.039	0.106
0.052	23.993	-0.084	-0.055	-0.025	0.125	0.868	0.968	-0.339	1.712	2.020	1.902	-0.001	0.043	0.111
0.052	23.975	-0.081	-0.059	-0.022	0.103	0.906	1.007	-0.355	1.685	2.021	1.904	-0.001	0.045	0.121
0.053	23.972	-0.080	-0.063	-0.019	0.082	0.923	1.006	-0.307	1.668	2.009	1.904	-0.000	0.046	0.126
0.053	23.984	-0.078	-0.065	-0.015	0.060	0.956	0.984	-0.275	1.699	2.024	1.905	0.001	0.048	0.131
0.053	23.984	-0.078	-0.069	-0.013	0.040	0.969	0.958	-0.245	1.743	2.022	1.901	0.004	0.049	0.134
0.053	23.987	-0.076	-0.072	-0.012	0.020	0.957	0.940	-0.253	1.781	2.024	1.902	0.002	0.050	0.136
0.053	24.008	-0.075	-0.072	-0.010	0.004	0.955	0.930	-0.291	1.790	2.022	1.902	0.003	0.050	0.135
0.054	23.993	-0.073	-0.074	-0.012	-0.012	0.945	0.961	-0.296	1.744	2.020	1.903	0.005	0.053	0.133
0.054	23.996	-0.072	-0.072	-0.014	-0.028	0.967	0.955	-0.245	1.656	2.021	1.904	0.008	0.051	0.130
0.054	23.978	-0.071	-0.072	-0.018	-0.041	0.971	0.983	-0.160	1.556	2.013	1.903	0.008	0.052	0.125
0.054	23.975	-0.070	-0.072	-0.023	-0.053	0.997	1.004	-0.065	1.477	2.015	1.906	0.008	0.052	0.120
0.054	23.972	-0.067	-0.073	-0.030	-0.063	0.982	0.977	-0.002	1.456	2.008	1.899	0.010	0.053	0.117
0.055	23.969	-0.064	-0.072	-0.038	-0.070	0.958	0.974	-0.011	1.492	2.024	1.908	0.014	0.052	0.109
0.055	23.981	-0.064	-0.071	-0.045	-0.077	0.946	0.967	-0.062	1.532	2.019	1.905	0.016	0.052	0.101
0.055	23.950	-0.061	-0.071	-0.051	-0.082	0.954	0.973	-0.144	1.569	2.022	1.895	0.018	0.053	0.094
0.055	23.996	-0.062	-0.069	-0.058	-0.084	0.954	0.991	-0.230	1.569	2.025	1.902	0.020	0.052	0.087
0.055	23.978	-0.062	-0.067	-0.064	-0.083	0.943	1.011	-0.250	1.511	2.016	1.905	0.022	0.052	0.082
0.056	23.959	-0.060	-0.066	-0.070	-0.078	0.937	1.045	-0.173	1.459	2.016	1.910	0.025	0.052	0.075
0.056	23.984	-0.058	-0.064	-0.075	-0.075	0.954	1.039	-0.038	1.417	2.021	1.907	0.027	0.052	0.069
0.056	23.962	-0.055	-0.062	-0.078	-0.070	0.981	1.011	0.095	1.397	2.016	1.908	0.028	0.054	0.067
0.056	23.981	-0.053	-0.062	-0.078	-0.062	0.983	1.001	0.173	1.414	2.016	1.910	0.030	0.052	0.063
0.056	23.965	-0.053	-0.062	-0.082	-0.052	0.986	0.992	0.211	1.411	2.015	1.902	0.033	0.053	0.062
0.057	23.978	-0.054	-0.061	-0.084	-0.044	0.946	0.999	0.177	1.389	2.019	1.906	0.034	0.053	0.063
0.057	23.978	-0.055	-0.060	-0.085	-0.033	0.937	1.038	0.119	1.331	2.011	1.908	0.035	0.055	0.060
0.057	23.959	-0.055	-0.061	-0.084	-0.019	0.929	1.074	0.058	1.258	2.010	1.905	0.037	0.053	0.062
0.057	23.965	-0.055	-0.061	-0.084	-0.003	0.922	1.106	0.040	1.243	2.007	1.903	0.040	0.054	0.066
0.057	23.953	-0.054	-0.062	-0.087	0.012	0.917	1.122	0.047	1.226	2.006	1.894	0.040	0.052	0.069
0.058	23.972	-0.054	-0.063	-0.082	0.024	0.933	1.090	0.051	1.263	2.012	1.909	0.041	0.053	0.072
0.058	23.972	-0.050	-0.068	-0.078	0.035	0.942	1.079	0.053	1.313	2.006	1.899	0.042	0.053	0.077
0.058	23.950	-0.049	-0.072	-0.073	0.048	0.949	1.044	0.034	1.362	2.008	1.902	0.040	0.050	0.081
0.058	23.975	-0.048	-0.073	-0.066	0.057	0.953	1.048	-0.001	1.360	1.999	1.908	0.042	0.050	0.089
0.058	23.962	-0.044	-0.075	-0.055	0.069	0.958	1.055	-0.010	1.299	2.004	1.897	0.041	0.047	0.092
0.059	23.981	-0.044	-0.079	-0.042	0.079	0.950	1.060	0.049	1.274	2.007	1.904	0.040	0.047	0.095
0.059	23.947	-0.043	-0.084	-0.029	0.084	0.940	1.065	0.131	1.253	2.013	1.900	0.039	0.042	0.101
0.059	23.962	-0.043	-0.086	-0.011	0.091	0.938	1.083	0.221	1.280	2.016	1.902	0.041	0.042	0.102
0.059	23.969	-0.040	-0.088	0.004	0.095	0.943	1.088	0.292	1.314	2.008	1.904	0.037	0.040	0.102
0.059	23.956	-0.037	-0.091	0.022	0.101	0.973	1.094	0.351	1.299	2.001	1.899	0.035	0.038	0.103
0.060	23.938	-0.038	-0.092	0.039	0.109	0.958	1.080	0.372	1.287	2.010	1.902	0.032	0.033	0.105
0.060	23.959	-0.035	-0.096	0.053	0.121	0.922	1.076	0.330	1.275	2.010	1.896	0.029	0.029	0.105
0.060	23.981	-0.033	-0.097	0.064	0.133	0.883	1.068	0.268	1.301	2.010	1.898	0.026	0.025	0.104
0.060	23.972	-0.031	-0.097	0.078	0.146	0.846	1.071	0.240	1.297	2.005	1.895	0.021	0.022	0.098
0.060	23.959	-0.028	-0.099	0.090	0.161	0.838	1.079	0.277	1.297	2.002	1.892	0.017	0.016	0.094
0.061	23.969	-0.026	-0.101	0.095	0.176	0.839	1.074	0.361	1.330	2.000	1.895	0.009	0.013	0.089
0.061	23.965	-0.028	-0.101	0.101	0.194	0.854	1.057	0.408	1.348	1.999	1.899	0.009	0.011	0.082
0.061	23.972	-0.023	-0.100	0.104	0.211	0.864	1.057	0.434	1.321	2.006	1.903	0.007	0.006	0.076
0.061	23.969	-0.023	-0.103	0.103	0.230	0.866	1.057	0.443	1.320	2.008	1.897	-0.002	0.002	0.069
0.061	23.956	-0.022	-0.099	0.102	0.245	0.838	1.063	0.441	1.304	2.007	1.896	-0.006	0.001	0.059
0.062	23.972	-0.016	-0.099	0.098	0.260	0.844	1.076	0.484	1.306	2.008	1.894	-0.012	-0.004	0.052
0.062	23.984	-0.014	-0.103	0.095	0.277	0.817	1.055	0.523	1.306	2.004	1.899	-0.015	-0.002	0.043
0.062	23.978	-0.010	-0.097	0.094	0.289	0.849	1.074	0.568	1.332	1.993	1.894	-0.021	-0.007	0.032
0.062	23.959	-0.008	-0.099	0.094	0.304	0.864	1.051	0.585	1.373	2.002	1.894	-0.024	-0.008	0.027
0.062	23.984	-0.006	-0.092	0.095	0.318	0.883	1.035	0.586	1.377	2.001	1.895	-0.026	-0.008	0.020
0.063	23.959	-0.007	-0.090	0.099	0.324	0.866	1.019	0.592	1.369	1.997	1.900	-0.032	-0.009	0.013
0.063	23.965	-0.009	-0.091	0.108	0.329	0.834	1.011	0.609	1.329	1.997	1.894	-0.035	-0.008	0.009
0.063	23.959	-0.009	-0.087	0.118	0.335	0.797	0.958	0.626	1.274	2.002	1.892	-0.038	-0.008	0.001
0.063	23.962	-0.011	-0.086	0.132	0.338	0.779	0.954	0.626	1.223	1.995	1.905	-0.041	-0.006	-0.002
0.063	23.956	-0.009	-0.084	0.148	0.337	0.783	0.961	0.638	1.216	1.997	1.904	-0.041	-0.005	-0.006
0.064	23.950	-0.006	-0.083	0.166	0.333	0.837	0.965	0.680	1.222	1.995	1.891	-0.043	-0.003	-0.007
0.064	23.962	-0.006	-0.078	0.183	0.329	0.893	0.975	0.748	1.231	1.997	1.894	-0.043	-0.003	-0.008
0.064	23.938	-0.006	-0.078	0.200	0.322	0.913	0.962	0.790	1.190	1.998	1.898	-0.044	0.001	-0.007
0.064	23.917	-0.008	-0.080	0.214	0.314	0.897	0.941	0.833	1.157	1.999	1.901	-0.045	0.003	-0.006
0.064	23.941	-0.010	-0.078	0.230	0.310	0.864	0.921	0.847	1.130	1.994	1.899	-0.045	0.004	-0.006
0.065	23.923	-0.011	-0.080	0.242	0.304	0.823	0.935	0.819	1.139	2.005	1.899	-0.044	0.006	-0.001
0.065	23.932	-0.014	-0.079	0.254	0.299	0.786	0.965	0.763	1.152	2.000	1.905	-0.042	0.009	0.002
0.065	23.914	-0.017	-0.080	0.263	0.294	0.787	0.992	0.702	1.183	1.996	1.882	-0.043	0.012	0.007
0.065	23.941	-0.019	-0.079	0.269	0.287	0.804	1.019	0.679	1.193	1.997	1.896	-0.043	0.014	0.011
0.065	23.907	-0.020	-0.080	0.276	0.281	0.862	1.026	0.702	1.157	1.996	1.893	-0.042	0.015	0.015
0.066	23.914	-0.019	-0.080	0.279	0.275	0.900	1.006	0.779	1.101	1.994	1.897	-0.041	0.018	0.020
0.066	23.904	-0.020	-0.081	0.281	0.268	0.911	0.991	0.851	1.077	1.989	1.896	-0.039	0.022	0.023
0.066	23.871	-0.022	-0.078	0.281	0.259	0.897	0.991	0.874	1.076	1.999	1.892	-0.036	0.023	0.026
0.066	23.871	-0.026	-0.081	0.280	0.257	0.868	0.994	0.814	1.117	1.993	1.894	-0.032	0.026	0.027
0.066	23.883	-0.028	-0.080	0.276	0.252	0.853	1.025	0.753	1.197	2.003	1.893	-0.028	0.028	0.029
0.067	23.886	-0.034	-0.081	0.270	0.248	0.825	1.048	0.714	1.243	1.997	1.899	-0.025	0.030	0.028
0.067	23.862	-0.036	-0.080	0.263	0.248	0.836	1.060	0.729	1.274	1.998	1.894	-0.022	0.032	0.031
0.067	23.880	-0.040	-0.080	0.251	0.245	0.863	1.028	0.807	1.220	1.996	1.896	-0.016	0.033	0.030
0.067	23.886	-0.041	-0.078	0.238	0.241	0.909	0.985	0.900	1.151	1.996	1.893	-0.011	0.036	0.029
0.067	23.883	-0.042	-0.075	0.223	0.242	0.953	0.967	0.973	1.114	1.997	1.899	-0.006	0.036	0.027
0.068	23.856	-0.042	-0.074	0.207	0.239	0.935	0.982	0.986	1.127	1.994	1.899	-0.001	0.039	0.025
0.068	23.859	-0.041	-0.068	0.190	0.232	0.899	1.015	0.955	1.157	1.987	1.895	0.005	0.040	0.024
0.068	23.868	-0.044	-0.067	0.171	0.226	0.844	1.015	0.926	1.256	1.989	1.894	0.009	0.043	0.019
0.068	23.868	-0.045	-0.066	0.149	0.218	0.784	1.037	0.888	1.314	1.994	1.892	0.015	0.043	0.017
0.068	23.862	-0.048	-0.063	0.129	0.208	0.741	1.039	0.930	1.307	1.997	1.896	0.019	0.045	0.017
0.069	23.877	-0.049	-0.062	0.108	0.196	0.761	0.995	1.006	1.297	1.998	1.899	0.023	0.046	0.017
0.069	23.862	-0.052	-0.060	0.090	0.184	0.800	0.973	1.087	1.233	2.001	1.885	0.028	0.046	0.016
0.069	23.868	-0.053	-0.059	0.072	0.172	0.844	0.968	1.123	1.209	1.992	1.889	0.032	0.046	0.017
0.069	23.874	-0.052	-0.058	0.050	0.159	0.868	0.973	1.141	1.226	1.989	1.890	0.036	0.043	0.018
0.069	23.856	-0.051	-0.058	0.033	0.143	0.850	0.979	1.113	1.285	1.992	1.890	0.040	0.043	0.020
0.070	23.880	-0.049	-0.057	0.015	0.129	0.804	0.980	1.083	1.338	1.999	1.893	0.044	0.042	0.022
0.070	23.859	-0.048	-0.056	-0.002	0.114	0.757	0.966	1.035	1.349	1.991	1.891	0.045	0.041	0.024
0.070	23.907	-0.045	-0.054	-0.016	0.098	0.727	0.953	1.013	1.334	1.993	1.891	0.048	0.040	0.027
0.070	23.868	-0.043	-0.054	-0.029	0.083	0.723	0.940	1.044	1.263	1.992	1.895	0.049	0.039	0.031
0.070	23.892	-0.041	-0.053	-0.043	0.067	0.780	0.921	1.079	1.196	1.989	1.889	0.050	0.038	0.037
0.071	23.877	-0.035	-0.055	-0.053	0.052	0.833	0.912	1.094	1.147	1.992	1.891	0.050	0.038	0.039
0.071	23.868	-0.032	-0.058	-0.063	0.039	0.870	0.916	1.077	1.169	1.993	1.894	0.050	0.039	0.044
0.071	23.874	-0.031	-0.057	-0.072	0.028	0.857	0.912	1.038	1.204	1.977	1.896	0.053	0.040	0.048
0.071	23.874	-0.024	-0.058	-0.080	0.016	0.849	0.935	0.987	1.251	1.995	1.891	0.051	0.040	0.056
0.071	23.877	-0.023	-0.059	-0.086	0.009	0.786	0.940	0.983	1.248	1.985	1.890	0.051	0.045	0.057
0.072	23.862	-0.019	-0.056	-0.090	-0.002	0.750	0.933	0.992	1.257	1.988	1.891	0.049	0.045	0.060
0.072	23.886	-0.013	-0.059	-0.092	-0.010	0.773	0.941	1.028	1.247	1.986	1.895	0.049	0.049	0.064
0.072	23.889	-0.013	-0.061	-0.093	-0.018	0.783	0.924	1.071	1.251	1.979	1.895	0.049	0.054	0.065
0.072	23.877	-0.009	-0.058	-0.093	-0.026	0.868	0.917	1.067	1.257	1.988	1.887	0.046	0.056	0.068
0.072	23.883	-0.009	-0.059	-0.091	-0.034	0.904	0.904	1.014	1.278	1.988	1.889	0.046	0.062	0.066
0.073	23.880	-0.006	-0.057	-0.087	-0.042	0.914	0.897	0.985	1.295	1.986	1.884	0.042	0.068	0.067
0.073	23.883	-0.004	-0.056	-0.079	-0.051	0.906	0.887	0.993	1.290	1.990	1.891	0.039	0.073	0.064
0.073	23.877	-0.003	-0.057	-0.074	-0.058	0.884	0.883	1.016	1.289	1.987	1.890	0.037	0.078	0.062
0.073	23.892	-0.000	-0.057	-0.066	-0.067	0.858	0.866	1.039	1.289	1.976	1.889	0.033	0.083	0.060
0.073	23.892	0.004	-0.055	-0.054	-0.070	0.864	0.860	1.045	1.293	1.989	1.887	0.032	0.088	0.057
0.074	23.914	0.008	-0.055	-0.044	-0.075	0.860	0.854	1.055	1.306	1.987	1.886	0.026	0.092	0.053
0.074	23.907	0.013	-0.053	-0.033	-0.080	0.883	0.850	1.062	1.331	1.979	1.883	0.021	0.098	0.049
0.074	23.892	0.020	-0.050	-0.021	-0.084	0.922	0.856	1.070	1.285	1.985	1.885	0.017	0.100	0.044
0.074	23.901	0.028	-0.049	-0.006	-0.086	0.963	0.852	1.059	1.264	1.985	1.895	0.012	0.104	0.040
0.074	23.917	0.035	-0.045	0.006	-0.088	0.960	0.875	1.033	1.285	1.980	1.885	0.008	0.105	0.033
0.075	23.901	0.040	-0.041	0.021	-0.089	0.941	0.886	1.023	1.266	1.974	1.882	0.003	0.106	0.030
0.075	23.914	0.044	-0.039	0.034	-0.088	0.917	0.861	1.029	1.258	1.978	1.891	-0.002	0.107	0.028
0.075	23.895	0.046	-0.036	0.048	-0.087	0.895	0.831	1.082	1.247	1.985	1.893	-0.007	0.107	0.023
0.075	23.895	0.049	-0.033	0.062	-0.080	0.884	0.825	1.128	1.256	1.977	1.884	-0.011	0.107	0.019
0.075	23.926	0.050	-0.031	0.074	-0.070	0.877	0.779	1.152	1.273	1.972	1.887	-0.017	0.106	0.017
0.076	23.920	0.053	-0.029	0.085	-0.064	0.884	0.740	1.174	1.283	1.976	1.888	-0.021	0.105	0.017
0.076	23.911	0.055	-0.026	0.096	-0.055	0.908	0.707	1.140	1.292	1.987	1.894	-0.026	0.103	0.016
0.076	23.914	0.058	-0.025	0.108	-0.044	0.926	0.690	1.105	1.310	1.974	1.893	-0.025	0.102	0.015
0.076	23.917	0.063	-0.022	0.118	-0.034	0.907	0.675	1.031	1.306	1.977	1.886	-0.029	0.100	0.017
0.076	23.929	0.063	-0.021	0.133	-0.026	0.858	0.635	0.966	1.254	1.973	1.889	-0.032	0.102	0.019
0.077	23.929	0.064	-0.022	0.145	-0.017	0.835	0.597	0.896	1.223	1.976	1.883	-0.033	0.094	0.020
0.077	23.929	0.067	-0.021	0.155	-0.009	0.784	0.562	0.884	1.178	1.974	1.884	-0.035	0.096	0.022
0.077	23.904	0.068	-0.022	0.166	-0.001	0.753	0.543	0.898	1.122	1.977	1.888	-0.034	0.093	0.022
0.077	23.935	0.069	-0.024	0.177	0.004	0.762	0.520	0.953	1.138	1.983	1.885	-0.036	0.091	0.024
0.077	23.920	0.070	-0.023	0.188	0.007	0.816	0.529	0.994	1.134	1.977	1.889	-0.035	0.089	0.023
0.078	23.923	0.073	-0.024	0.197	0.012	0.840	0.522	0.985	1.190	1.978	1.890	-0.033	0.088	0.027
0.078	23.904	0.074	-0.026	0.206	0.014	0.843	0.512	0.962	1.304	1.972	1.890	-0.035	0.086	0.026
0.078	23.923	0.077	-0.027	0.214	0.015	0.811	0.495	0.932	1.363	1.970	1.886	-0.032	0.085	0.026
0.078	23.929	0.079	-0.025	0.216	0.016	0.766	0.478	0.911	1.425	1.970	1.880	-0.030	0.080	0.024
0.078	23.929	0.078	-0.021	0.218	0.018	0.706	0.454	0.925	1.428	1.967	1.885	-0.028	0.079	0.023
0.079	23.914	0.080	-0.019	0.221	0.018	0.666	0.457	0.924	1.405	1.975	1.880	-0.024	0.076	0.020
0.079	23.929	0.080	-0.016	0.221	0.022	0.689	0.465	0.962	1.345	1.971	1.876	-0.020	0.074	0.017
0.079	23.935	0.081	-0.011	0.220	0.026	0.730	0.483	0.986	1.319	1.965	1.890	-0.016	0.072	0.013
0.079	23.926	0.084	-0.007	0.218	0.031	0.793	0.497	0.974	1.357	1.969	1.885	-0.013	0.069	0.009
0.079	23.907	0.086	-0.004	0.217	0.040	0.825	0.493	0.908	1.418	1.967	1.883	-0.007	0.070	0.005
0.080	23.935	0.086	0.003	0.214	0.050	0.793	0.474	0.796	1.458	1.969	1.888	0.002	0.070	-0.001
0.080	23.926	0.091	0.007	0.211	0.064	0.728	0.477	0.718	1.489	1.971	1.883	0.004	0.073	-0.007
0.080	23.929	0.093	0.015	0.206	0.081	0.670	0.459	0.693	1.496	1.972	1.889	0.010	0.070	-0.011
0.080	23.935	0.096	0.019	0.201	0.103	0.627	0.440	0.699	1.478	1.969	1.884	0.016	0.070	-0.015
0.080	23.929	0.096	0.024	0.196	0.125	0.644	0.470	0.785	1.466	1.971	1.881	0.022	0.072	-0.016
0.081	23.950	0.098	0.030	0.194	0.151	0.705	0.478	0.854	1.492	1.977	1.884	0.029	0.074	-0.023
0.081	23.932	0.103	0.035	0.191	0.175	0.807	0.468	0.859	1.550	1.978	1.885	0.033	0.076	-0.026
0.081	23.947	0.099	0.040	0.188	0.203	0.866	0.471	0.839	1.586	1.977	1.887	0.036	0.079	-0.030
0.081	23.953	0.099	0.046	0.185	0.226	0.858	0.481	0.796	1.635	1.976	1.889	0.045	0.081	-0.032
0.081	23.926	0.100	0.054	0.183	0.253	0.817	0.468	0.736	1.665	1.970	1.884	0.050	0.082	-0.033
0.082	23.953	0.096	0.061	0.179	0.276	0.712	0.450	0.731	1.661	1.972	1.888	0.055	0.086	-0.036
0.082	23.975	0.098	0.072	0.179	0.296	0.667	0.460	0.746	1.578	1.974	1.880	0.055	0.084	-0.036
0.082	23.956	0.100	0.076	0.179	0.313	0.667	0.474	0.810	1.527	1.968	1.883	0.058	0.090	-0.036
0.082	23.972	0.102	0.085	0.177	0.326	0.723	0.488	0.859	1.471	1.973	1.879	0.060	0.092	-0.035
0.082	23.941	0.103	0.091	0.173	0.338	0.784	0.494	0.894	1.445	1.969	1.885	0.060	0.095	-0.036
0.083	23.959	0.105	0.098	0.173	0.347	0.810	0.490	0.866	1.443	1.974	1.879	0.060	0.092	-0.033
0.083	23.950	0.106	0.102	0.171	0.349	0.790	0.464	0.828	1.450	1.966	1.880	0.059	0.093	-0.031
0.083	23.941	0.108	0.105	0.164	0.349	0.725	0.446	0.776	1.455	1.973	1.882	0.057	0.091	-0.029
0.083	23.956	0.107	0.109	0.160	0.345	0.665	0.435	0.777	1.446	1.971	1.879	0.053	0.089	-0.026
0.083	23.956	0.109	0.111	0.155	0.339	0.628	0.416	0.790	1.413	1.972	1.887	0.050	0.087	-0.024
0.084	23.965	0.108	0.109	0.151	0.332	0.629	0.413	0.823	1.383	1.977	1.885	0.046	0.084	-0.021
0.084	23.969	0.109	0.106	0.145	0.320	0.701	0.422	0.816	1.414	1.968	1.882	0.042	0.081	-0.020
0.084	23.972	0.107	0.107	0.141	0.307	0.743	0.421	0.761	1.448	1.972	1.881	0.038	0.078	-0.018
0.084	23.938	0.109	0.104	0.138	0.298	0.768	0.395	0.692	1.491	1.980	1.881	0.033	0.073	-0.017
0.084	23.990	0.107	0.101	0.135	0.288	0.763	0.365	0.609	1.523	1.975	1.878	0.028	0.070	-0.015
0.085	23.956	0.105	0.100	0.128	0.273	0.679	0.361	0.573	1.534	1.968	1.877	0.024	0.067	-0.015
0.085	23.981	0.104	0.099	0.122	0.262	0.616	0.343	0.603	1.528	1.975	1.879	0.020	0.067	-0.013
0.085	23.959	0.103	0.095	0.122	0.256	0.575	0.315	0.650	1.482	1.969	1.883	0.016	0.066	-0.009
0.085	23.959	0.102	0.091	0.120	0.247	0.602	0.299	0.682	1.498	1.967	1.886	0.013	0.065	-0.009
0.085	23.969	0.099	0.088	0.119	0.244	0.675	0.278	0.678	1.520	1.970	1.884	0.010	0.066	-0.008
0.086	23.965	0.098	0.087	0.116	0.239	0.720	0.256	0.688	1.530	1.972	1.881	0.008	0.067	-0.007
0.086	23.959	0.095	0.086	0.117	0.236	0.743	0.254	0.669	1.550	1.973	1.881	0.006	0.070	-0.005
0.086	23.956	0.092	0.085	0.119	0.239	0.708	0.256	0.633	1.500	1.963	1.878	0.004	0.074	-0.004
0.086	23.990	0.090	0.086	0.117	0.242	0.618	0.282	0.651	1.456	1.959	1.888	0.004	0.077	-0.003
0.086	23.972	0.089	0.086	0.117	0.246	0.550	0.264	0.695	1.435	1.968	1.888	0.001	0.080	-0.001
0.087	23.969	0.087	0.087	0.117	0.249	0.499	0.256	0.743	1.456	1.980	1.879	0.002	0.083	0.001
0.087	23.972	0.086	0.086	0.113	0.253	0.489	0.186	0.768	1.483	1.964	1.885	0.001	0.089	0.004
0.087	23.975	0.084	0.086	0.109	0.257	0.538	0.159	0.728	1.480	1.968	1.885	0.001	0.092	0.004
0.087	23.975	0.081	0.088	0.105	0.264	0.584	0.144	0.679	1.446	1.978	1.884	-0.000	0.095	0.009
0.087	23.981	0.078	0.089	0.101	0.272	0.594	0.144	0.629	1.409	1.975	1.881	-0.001	0.098	0.014
0.088	23.972	0.073	0.094	0.097	0.276	0.566	0.166	0.631	1.380	1.967	1.881	-0.002	0.101	0.017
0.088	23.984	0.072	0.091	0.092	0.281	0.521	0.195	0.622	1.420	1.972	1.880	-0.002	0.102	0.021
0.088	23.969	0.070	0.091	0.085	0.287	0.468	0.192	0.609	1.451	1.968	1.873	-0.001	0.102	0.026
0.088	23.969	0.071	0.093	0.079	0.291	0.436	0.146	0.621	1.528	1.982	1.881	-0.001	0.102	0.031
0.088	23.965	0.070	0.093	0.071	0.293	0.449	0.121	0.622	1.571	1.971	1.884	-0.004	0.103	0.036
0.089	23.965	0.072	0.091	0.065	0.294	0.470	0.083	0.625	1.573	1.977	1.882	-0.005	0.103	0.042
0.089	24.005	0.075	0.090	0.059	0.294	0.496	0.093	0.630	1.552	1.969	1.883	-0.007	0.102	0.048
0.089	23.953	0.074	0.088	0.052	0.291	0.482	0.145	0.602	1.515	1.982	1.889	-0.007	0.101	0.055
0.089	23.969	0.076	0.086	0.045	0.286	0.443	0.155	0.555	1.510	1.974	1.882	-0.009	0.100	0.060
0.089	23.972	0.082	0.082	0.040	0.279	0.403	0.151	0.519	1.525	1.970	1.881	-0.011	0.098	0.065
0.090	23.984	0.084	0.079	0.034	0.270	0.385	0.122	0.518	1.563	1.980	1.890	-0.012	0.095	0.070
0.090	23.987	0.086	0.076	0.030	0.258	0.393	0.070	0.536	1.589	1.975	1.875	-0.011	0.094	0.075
0.090	23.984	0.088	0.074	0.026	0.245	0.410	0.026	0.575	1.596	1.970	1.881	-0.012	0.094	0.078
0.090	24.014	0.091	0.073	0.024	0.231	0.447	-0.002	0.585	1.556	1.974	1.879	-0.013	0.093	0.080
0.090	23.996	0.096	0.071	0.023	0.214	0.470	0.023	0.579	1.492	1.972	1.882	-0.013	0.093	0.081
0.091	24.030	0.099	0.068	0.020	0.198	0.432	0.046	0.551	1.440	1.967	1.875	-0.012	0.094	0.083
0.091	24.017	0.103	0.067	0.019	0.181	0.366	0.086	0.523	1.431	1.969	1.886	-0.012	0.094	0.084
0.091	24.030	0.107	0.066	0.018	0.164	0.331	0.090	0.487	1.470	1.972	1.884	-0.014	0.094	0.082
0.091	24.030	0.110	0.064	0.015	0.150	0.299	0.060	0.448	1.507	1.968	1.885	-0.014	0.096	0.081
0.091	24.042	0.116	0.064	0.015	0.136	0.298	0.022	0.484	1.498	1.974	1.891	-0.012	0.095	0.078
0.092	24.045	0.121	0.061	0.014	0.126	0.361	-0.035	0.550	1.507	1.976	1.884	-0.016	0.099	0.077
0.092	24.039	0.121	0.061	0.013	0.118	0.389	-0.060	0.601	1.502	1.974	1.880	-0.016	0.101	0.073
0.092	24.030	0.130	0.058	0.013	0.114	0.439	-0.049	0.601	1.481	1.972	1.879	-0.017	0.101	0.070
0.092	24.063	0.133	0.056	0.012	0.112	0.432	-0.004	0.505	1.483	1.967	1.881	-0.018	0.102	0.066
0.092	24.048	0.138	0.055	0.012	0.117	0.403	0.027	0.399	1.500	1.969	1.873	-0.020	0.104	0.062
0.093	24.063	0.141	0.052	0.012	0.123	0.355	0.049	0.286	1.504	1.969	1.878	-0.020	0.105	0.059
0.093	24.048	0.143	0.051	0.012	0.134	0.343	0.036	0.249	1.516	1.972	1.880	-0.025	0.105	0.055
0.093	24.045	0.146	0.049	0.009	0.150	0.352	-0.003	0.278	1.465	1.977	1.881	-0.028	0.107	0.051
0.093	24.060	0.148	0.047	0.009	0.160	0.395	-0.032	0.327	1.411	1.972	1.878	-0.030	0.106	0.047
0.093	24.075	0.151	0.043	0.009	0.178	0.419	-0.051	0.343	1.354	1.977	1.872	-0.034	0.108	0.044
0.094	24.063	0.154	0.043	0.007	0.194	0.429	-0.028	0.330	1.345	1.972	1.882	-0.037	0.108	0.045
0.094	24.063	0.155	0.039	0.006	0.207	0.393	-0.005	0.252	1.389	1.973	1.874	-0.038	0.108	0.042
0.094	24.069	0.160	0.038	0.005	0.223	0.362	0.040	0.163	1.444	1.969	1.879	-0.043	0.107	0.043
0.094	24.075	0.161	0.036	0.003	0.234	0.308	0.075	0.145	1.554	1.968	1.877	-0.045	0.107	0.047
0.094	24.088	0.167	0.033	0.002	0.242	0.329	0.071	0.167	1.599	1.969	1.881	-0.048	0.105	0.050
0.095	24.069	0.168	0.030	0.003	0.247	0.361	0.049	0.278	1.562	1.973	1.881	-0.050	0.106	0.055
0.095	24.078	0.171	0.028	0.002	0.249	0.431	-0.016	0.396	1.493	1.967	1.877	-0.051	0.103	0.060
0.095	24.069	0.171	0.024	0.005	0.248	0.488	-0.029	0.456	1.432	1.968	1.887	-0.052	0.106	0.067
0.095	24.088	0.173	0.022	0.009	0.242	0.501	-0.022	0.462	1.410	1.969	1.880	-0.053	0.102	0.078
0.095	24.112	0.172	0.018	0.010	0.235	0.469	0.022	0.420	1.422	1.964	1.877	-0.052	0.102	0.086
0.096	24.072	0.173	0.016	0.010	0.225	0.408	0.048	0.319	1.454	1.959	1.873	-0.052	0.102	0.095
0.096	24.084	0.173	0.014	0.011	0.215	0.356	0.063	0.258	1.475	1.964	1.883	-0.049	0.102	0.101
0.096	24.078	0.173	0.015	0.010	0.200	0.347	0.061	0.270	1.463	1.964	1.875	-0.048	0.104	0.112
0.096	24.100	0.173	0.016	0.008	0.189	0.365	0.032	0.317	1.413	1.973	1.875	-0.045	0.103	0.121
0.096	24.094	0.174	0.014	0.006	0.176	0.414	0.012	0.413	1.356	1.964	1.880	-0.043	0.102	0.128
0.097	24.057	0.174	0.015	0.003	0.163	0.453	-0.026	0.449	1.321	1.974	1.879	-0.037	0.104	0.134
0.097	24.109	0.173	0.015	0.001	0.151	0.470	-0.013	0.412	1.336	1.960	1.877	-0.032	0.104	0.139
0.097	24.094	0.175	0.017	-0.004	0.139	0.461	0.016	0.349	1.383	1.964	1.876	-0.030	0.104	0.142
0.097	24.088	0.176	0.019	-0.007	0.129	0.412	0.040	0.275	1.447	1.961	1.882	-0.025	0.103	0.143
0.097	24.081	0.175	0.021	-0.014	0.120	0.389	0.081	0.240	1.490	1.965	1.881	-0.021	0.102	0.144
0.098	24.091	0.172	0.023	-0.019	0.113	0.389	0.066	0.237	1.487	1.964	1.885	-0.018	0.099	0.142
0.098	24.103	0.174	0.026	-0.022	0.108	0.403	0.024	0.269	1.456	1.961	1.878	-0.015	0.097	0.137
0.098	24.094	0.172	0.028	-0.028	0.106	0.438	-0.037	0.292	1.385	1.967	1.879	-0.014	0.093	0.133
0.098	24.109	0.168	0.028	-0.033	0.103	0.464	-0.084	0.314	1.311	1.971	1.878	-0.013	0.089	0.127
0.098	24.139	0.165	0.030	-0.038	0.101	0.470	-0.090	0.308	1.263	1.962	1.879	-0.012	0.084	0.120
0.099	24.112	0.162	0.030	-0.041	0.101	0.432	-0.068	0.270	1.288	1.967	1.871	-0.013	0.080	0.111
0.099	24.109	0.159	0.032	-0.046	0.100	0.407	-0.028	0.238	1.350	1.951	1.878	-0.015	0.074	0.106
0.099	24.115	0.156	0.032	-0.050	0.100	0.390	-0.003	0.220	1.383	1.960	1.883	-0.018	0.067	0.093
0.099	24.142	0.155	0.032	-0.053	0.098	0.378	-0.032	0.270	1.406	1.953	1.879	-0.018	0.061	0.084
0.099	24.130	0.154	0.032	-0.058	0.094	0.398	-0.053	0.368	1.390	1.963	1.882	-0.020	0.055	0.075
0.100	24.130	0.153	0.031	-0.060	0.091	0.414	-0.094	0.415	1.378	1.963	1.877	-0.022	0.048	0.068
0.100	24.149	0.149	0.030	-0.062	0.087	0.400	-0.144	0.399	1.306	1.960	1.878	-0.029	0.044	0.062
0.100	24.142	0.144	0.030	-0.065	0.084	0.390	-0.174	0.377	1.285	1.951	1.880	-0.033	0.039	0.056
0.100	24.136	0.138	0.030	-0.069	0.078	0.348	-0.129	0.313	1.283	1.957	1.881	-0.036	0.037	0.053
0.100	24.121	0.133	0.030	-0.073	0.076	0.319	-0.102	0.291	1.298	1.966	1.879	-0.039	0.032	0.048
0.101	24.133	0.127	0.030	-0.077	0.072	0.294	-0.077	0.252	1.312	1.967	1.877	-0.042	0.029	0.050
0.101	24.139	0.124	0.028	-0.082	0.068	0.310	-0.088	0.245	1.294	1.964	1.876	-0.044	0.027	0.053
0.101	24.164	0.121	0.027	-0.088	0.061	0.359	-0.117	0.244	1.237	1.959	1.877	-0.044	0.026	0.052
0.101	24.155	0.121	0.027	-0.097	0.055	0.375	-0.146	0.274	1.187	1.949	1.880	-0.047	0.027	0.054
0.101	24.152	0.118	0.027	-0.106	0.052	0.372	-0.135	0.300	1.181	1.954	1.878	-0.046	0.029	0.057
0.102	24.194	0.116	0.028	-0.117	0.045	0.342	-0.098	0.252	1.197	1.964	1.882	-0.044	0.029	0.062
0.102	24.176	0.109	0.028	-0.128	0.042	0.323	-0.063	0.191	1.271	1.953	1.869	-0.044	0.033	0.067
0.102	24.173	0.102	0.030	-0.141	0.036	0.287	-0.025	0.168	1.293	1.959	1.869	-0.037	0.036	0.069
0.102	24.182	0.096	0.031	-0.151	0.029	0.306	-0.032	0.194	1.336	1.961	1.872	-0.038	0.039	0.072
0.102	24.207	0.088	0.034	-0.163	0.022	0.323	-0.059	0.260	1.273	1.958	1.876	-0.033	0.044	0.076
0.103	24.194	0.084	0.037	-0.172	0.018	0.361	-0.107	0.311	1.250	1.959	1.874	-0.030	0.048	0.077
0.103	24.185	0.077	0.041	-0.184	0.013	0.391	-0.135	0.353	1.243	1.963	1.876	-0.026	0.051	0.079
0.103	24.194	0.074	0.041	-0.190	0.009	0.391	-0.114	0.337	1.285	1.954	1.876	-0.022	0.054	0.078
0.103	24.197	0.070	0.044	-0.199	0.007	0.379	-0.044	0.291	1.293	1.959	1.876	-0.019	0.053	0.080
0.103	24.207	0.065	0.043	-0.206	0.004	0.350	0.033	0.271	1.337	1.957	1.873	-0.014	0.056	0.078
0.104	24.194	0.059	0.046	-0.208	0.003	0.327	0.073	0.251	1.337	1.964	1.872	-0.012	0.057	0.076
0.104	24.188	0.050	0.045	-0.210	0.003	0.322	0.084	0.282	1.261	1.964	1.873	-0.009	0.055	0.073
0.104	24.213	0.042	0.044	-0.211	0.003	0.341	0.036	0.314	1.152	1.968	1.875	-0.007	0.052	0.071
0.104	24.191	0.035	0.042	-0.210	0.007	0.359	-0.017	0.364	1.082	1.962	1.872	-0.005	0.051	0.067
0.104	24.216	0.027	0.042	-0.208	0.010	0.369	-0.058	0.390	1.034	1.964	1.866	-0.003	0.046	0.062
0.105	24.213	0.024	0.042	-0.205	0.015	0.385	-0.047	0.330	1.035	1.957	1.872	-0.002	0.041	0.057
0.105	24.222	0.017	0.040	-0.203	0.020	0.395	0.004	0.319	1.091	1.951	1.874	-0.001	0.038	0.052
0.105	24.222	0.012	0.040	-0.199	0.024	0.422	0.064	0.304	1.132	1.962	1.872	0.000	0.034	0.048
0.105	24.207	0.007	0.039	-0.194	0.030	0.415	0.071	0.294	1.150	1.969	1.870	-0.001	0.028	0.045
0.105	24.228	0.001	0.035	-0.188	0.037	0.391	0.089	0.339	1.119	1.964	1.871	0.001	0.023	0.040
0.106	24.210	-0.003	0.032	-0.182	0.044	0.372	0.063	0.344	1.075	1.963	1.871	0.000	0.018	0.038
0.106	24.219	-0.005	0.029	-0.174	0.051	0.352	0.015	0.341	1.042	1.957	1.866	0.001	0.014	0.037
0.106	24.213	-0.011	0.026	-0.168	0.055	0.343	0.021	0.289	1.031	1.959	1.868	0.002	0.009	0.035
0.106	24.213	-0.014	0.023	-0.157	0.061	0.378	0.062	0.232	1.043	1.960	1.876	0.002	0.005	0.035
0.106	24.225	-0.018	0.021	-0.146	0.067	0.378	0.147	0.210	1.032	1.958	1.877	0.005	0.001	0.033
0.107	24.219	-0.017	0.017	-0.135	0.071	0.427	0.235	0.184	1.045	1.951	1.873	0.007	-0.001	0.033
0.107	24.219	-0.021	0.016	-0.124	0.072	0.461	0.325	0.234	1.033	1.955	1.877	0.009	-0.004	0.033
0.107	24.207	-0.024	0.013	-0.110	0.075	0.484	0.340	0.254	1.008	1.954	1.874	0.010	-0.006	0.035
0.107	24.219	-0.026	0.014	-0.100	0.077	0.483	0.319	0.269	0.963	1.955	1.876	0.012	-0.007	0.036
0.107	24.219	-0.026	0.013	-0.088	0.075	0.474	0.262	0.253	0.943	1.961	1.876	0.015	-0.008	0.038
0.108	24.216	-0.026	0.013	-0.075	0.072	0.468	0.222	0.251	0.965	1.962	1.877	0.017	-0.009	0.040
0.108	24.222	-0.026	0.013	-0.061	0.070	0.466	0.217	0.244	0.983	1.961	1.866	0.020	-0.009	0.042
0.108	24.216	-0.026	0.015	-0.048	0.066	0.464	0.265	0.291	1.025	1.966	1.868	0.020	-0.010	0.044
0.108	24.228	-0.026	0.014	-0.034	0.063	0.441	0.316	0.338	1.043	1.968	1.873	0.024	-0.009	0.045
0.108	24.222	-0.021	0.015	-0.019	0.059	0.425	0.355	0.408	1.050	1.966	1.867	0.024	-0.009	0.047
0.109	24.203	-0.024	0.017	-0.001	0.055	0.438	0.364	0.420	1.054	1.965	1.867	0.024	-0.008	0.047
0.109	24.210	-0.022	0.019	0.012	0.049	0.475	0.355	0.391	1.064	1.962	1.873	0.024	-0.006	0.049
0.109	24.210	-0.020	0.020	0.027	0.047	0.498	0.365	0.342	1.066	1.970	1.876	0.026	-0.006	0.050
0.109	24.225	-0.018	0.021	0.043	0.043	0.545	0.360	0.274	1.067	1.959	1.876	0.025	-0.004	0.052
0.109	24.213	-0.018	0.023	0.059	0.042	0.596	0.392	0.239	1.064	1.963	1.877	0.022	-0.002	0.052
0.110	24.274	-0.016	0.025	0.075	0.040	0.622	0.419	0.245	1.047	1.960	1.876	0.021	0.001	0.050
0.110	24.231	-0.011	0.025	0.089	0.039	0.632	0.468	0.260	1.045	1.961	1.881	0.019	0.003	0.049
0.110	24.219	-0.009	0.026	0.103	0.042	0.614	0.504	0.264	1.022	1.958	1.877	0.017	0.002	0.046
0.110	24.249	-0.005	0.025	0.117	0.044	0.603	0.534	0.245	1.040	1.956	1.870	0.014	0.006	0.043
0.110	24.228	-0.003	0.024	0.129	0.051	0.594	0.547	0.234	1.039	1.955	1.873	0.010	0.008	0.040
0.111	24.240	-0.001	0.024	0.140	0.058	0.619	0.540	0.229	1.040	1.962	1.876	0.008	0.013	0.032
0.111	24.222	0.000	0.023	0.148	0.064	0.648	0.548	0.197	1.030	1.961	1.874	0.002	0.016	0.026
0.111	24.243	0.002	0.020	0.156	0.069	0.710	0.534	0.207	0.986	1.957	1.869	-0.001	0.021	0.021
0.111	24.237	0.005	0.019	0.164	0.077	0.760	0.545	0.221	0.959	1.960	1.874	-0.004	0.025	0.014
0.111	24.240	0.008	0.016	0.169	0.085	0.788	0.529	0.275	0.995	1.951	1.875	-0.010	0.031	0.006
0.112	24.249	0.007	0.015	0.176	0.093	0.807	0.507	0.302	1.034	1.964	1.873	-0.012	0.037	-0.002
0.112	24.243	0.013	0.010	0.180	0.099	0.810	0.478	0.314	1.046	1.962	1.871	-0.019	0.040	-0.008
0.112	24.237	0.013	0.009	0.186	0.107	0.754	0.470	0.343	1.037	1.955	1.865	-0.022	0.048	-0.016
0.112	24.246	0.014	0.005	0.192	0.113	0.738	0.466	0.363	1.008	1.965	1.867	-0.026	0.054	-0.024
0.112	24.240	0.015	0.002	0.197	0.119	0.799	0.499	0.386	0.990	1.963	1.870	-0.030	0.058	-0.031
0.113	24.240	0.018	-0.001	0.202	0.123	0.798	0.526	0.372	0.968	1.956	1.874	-0.033	0.062	-0.037
0.113	24.255	0.018	-0.004	0.203	0.126	0.785	0.537	0.365	0.956	1.958	1.873	-0.036	0.067	-0.043
0.113	24.243	0.017	-0.008	0.205	0.130	0.727	0.502	0.389	0.957	1.953	1.874	-0.038	0.071	-0.049
0.113	24.277	0.018	-0.006	0.208	0.130	0.725	0.441	0.379	0.950	1.955	1.872	-0.041	0.075	-0.052
0.113	24.237	0.018	-0.009	0.210	0.127	0.736	0.436	0.426	0.910	1.952	1.873	-0.042	0.079	-0.060
0.114	24.249	0.019	-0.011	0.210	0.123	0.789	0.441	0.478	0.845	1.953	1.872	-0.043	0.083	-0.063
0.114	24.255	0.023	-0.008	0.209	0.119	0.858	0.492	0.514	0.757	1.953	1.872	-0.044	0.086	-0.067
0.114	24.265	0.025	-0.007	0.203	0.114	0.887	0.533	0.537	0.679	1.963	1.869	-0.042	0.088	-0.070
0.114	24.277	0.029	-0.007	0.197	0.109	0.914	0.526	0.526	0.678	1.956	1.869	-0.041	0.090	-0.072
0.114	24.277	0.035	-0.007	0.188	0.105	0.877	0.504	0.489	0.715	1.951	1.869	-0.040	0.091	-0.075
0.115	24.277	0.035	-0.005	0.181	0.100	0.805	0.511	0.435	0.793	1.957	1.871	-0.037	0.090	-0.076
0.115	24.265	0.033	-0.004	0.170	0.096	0.720	0.521	0.389	0.827	1.959	1.869	-0.034	0.090	-0.077
0.115	24.265	0.034	-0.002	0.158	0.093	0.644	0.514	0.424	0.797	1.955	1.870	-0.029	0.092	-0.080
0.115	24.261	0.033	-0.000	0.144	0.089	0.662	0.558	0.481	0.746	1.953	1.868	-0.025	0.087	-0.081
0.115	24.240	0.035	0.001	0.128	0.089	0.741	0.604	0.540	0.686	1.958	1.869	-0.020	0.085	-0.079
0.116	24.258	0.039	0.003	0.111	0.088	0.839	0.675	0.553	0.655	1.950	1.867	-0.013	0.082	-0.080
0.116	24.249	0.041	0.002	0.093	0.086	0.887	0.707	0.507	0.680	1.951	1.867	-0.009	0.079	-0.079
0.116	24.237	0.043	0.002	0.073	0.086	0.820	0.722	0.450	0.760	1.956	1.865	-0.003	0.075	-0.082
0.116	24.243	0.048	0.003	0.053	0.086	0.736	0.724	0.412	0.822	1.955	1.869	0.002	0.070	-0.084
0.116	24.252	0.047	0.004	0.031	0.086	0.655	0.735	0.413	0.840	1.962	1.867	0.007	0.066	-0.085
0.117	24.237	0.050	0.004	0.010	0.084	0.627	0.744	0.431	0.813	1.951	1.863	0.012	0.060	-0.087
0.117	24.225	0.050	0.005	-0.012	0.083	0.662	0.780	0.513	0.742	1.954	1.868	0.015	0.055	-0.089
0.117	24.234	0.048	0.007	-0.032	0.079	0.705	0.771	0.605	0.671	1.947	1.861	0.020	0.052	-0.090
0.117	24.261	0.048	0.004	-0.052	0.074	0.727	0.767	0.615	0.669	1.940	1.857	0.024	0.041	-0.093
0.117	24.237	0.047	0.003	-0.073	0.067	0.748	0.732	0.521	0.742	1.945	1.863	0.025	0.034	-0.092
0.118	24.237	0.049	0.002	-0.091	0.059	0.749	0.723	0.389	0.847	1.951	1.862	0.026	0.026	-0.098
0.118	24.243	0.049	-0.001	-0.107	0.049	0.708	0.742	0.281	0.926	1.946	1.870	0.026	0.021	-0.101
0.118	24.243	0.050	-0.001	-0.121	0.036	0.679	0.786	0.288	0.948	1.944	1.864	0.026	0.014	-0.104
0.118	24.252	0.051	-0.004	-0.135	0.024	0.637	0.837	0.332	0.913	1.935	1.870	0.025	0.010	-0.107
0.118	24.228	0.055	-0.006	-0.148	0.007	0.622	0.856	0.403	0.837	1.933	1.861	0.024	0.003	-0.108
0.119	24.231	0.056	-0.008	-0.157	-0.007	0.635	0.852	0.471	0.773	1.933	1.870	0.023	-0.002	-0.111
0.119	24.228	0.055	-0.008	-0.170	-0.026	0.689	0.823	0.445	0.780	1.939	1.863	0.020	-0.009	-0.112
0.119	24.243	0.055	-0.009	-0.174	-0.038	0.714	0.769	0.393	0.860	1.938	1.862	0.017	-0.013	-0.111
0.119	24.225	0.051	-0.011	-0.181	-0.051	0.682	0.736	0.308	0.963	1.951	1.861	0.015	-0.017	-0.115
0.119	24.219	0.048	-0.013	-0.185	-0.066	0.640	0.742	0.221	1.029	1.946	1.862	0.011	-0.017	-0.116
0.120	24.222	0.044	-0.016	-0.183	-0.079	0.575	0.802	0.172	1.044	1.944	1.866	0.012	-0.019	-0.116
0.120	24.243	0.043	-0.017	-0.187	-0.091	0.553	0.863	0.178	1.020	1.942	1.868	0.012	-0.019	-0.117
0.120	24.225	0.041	-0.017	-0.181	-0.102	0.549	0.890	0.199	0.935	1.946	1.860	0.012	-0.020	-0.118
0.120	24.228	0.039	-0.020	-0.177	-0.111	0.599	0.862	0.232	0.852	1.946	1.859	0.008	-0.018	-0.119
0.120	24.246	0.037	-0.023	-0.172	-0.122	0.657	0.802	0.207	0.864	1.943	1.858	0.008	-0.016	-0.117
0.121	24.222	0.034	-0.027	-0.164	-0.131	0.710	0.711	0.171	0.861	1.941	1.866	0.009	-0.011	-0.118
0.121	24.225	0.028	-0.028	-0.157	-0.138	0.732	0.695	0.140	0.905	1.947	1.867	0.011	-0.011	-0.122
0.121	24.219	0.023	-0.031	-0.150	-0.146	0.711	0.691	0.094	0.923	1.939	1.864	0.010	-0.007	-0.118
0.121	24.240	0.015	-0.034	-0.142	-0.154	0.655	0.722	0.104	0.930	1.939	1.866	0.013	-0.004	-0.117
0.121	24.216	0.008	-0.036	-0.134	-0.162	0.610	0.771	0.148	0.930	1.943	1.859	0.013	-0.002	-0.119
0.122	24.216	-0.000	-0.038	-0.124	-0.168	0.606	0.757	0.173	0.910	1.936	1.857	0.014	0.001	-0.121
0.122	24.249	-0.007	-0.041	-0.114	-0.174	0.650	0.710	0.231	0.911	1.945	1.852	0.016	0.002	-0.122
0.122	24.216	-0.010	-0.046	-0.107	-0.180	0.738	0.646	0.251	0.918	1.939	1.856	0.014	0.003	-0.122
0.122	24.237	-0.018	-0.047	-0.097	-0.185	0.763	0.596	0.241	0.930	1.946	1.855	0.022	0.004	-0.123
0.122	24.200	-0.021	-0.051	-0.090	-0.189	0.766	0.609	0.219	0.920	1.938	1.851	0.019	0.003	-0.125
0.123	24.210	-0.030	-0.055	-0.084	-0.191	0.694	0.660	0.211	0.863	1.944	1.855	0.021	0.000	-0.127
0.123	24.231	-0.033	-0.059	-0.079	-0.193	0.660	0.699	0.232	0.804	1.950	1.859	0.019	0.001	-0.128
0.123	24.213	-0.037	-0.060	-0.077	-0.194	0.615	0.732	0.274	0.779	1.943	1.858	0.020	-0.002	-0.130
0.123	24.219	-0.045	-0.063	-0.076	-0.195	0.635	0.760	0.342	0.748	1.935	1.853	0.020	-0.004	-0.132
0.123	24.203	-0.053	-0.065	-0.078	-0.196	0.679	0.702	0.383	0.737	1.940	1.850	0.020	-0.007	-0.133
0.124	24.219	-0.058	-0.069	-0.080	-0.196	0.783	0.642	0.392	0.781	1.936	1.853	0.021	-0.008	-0.133
0.124	24.185	-0.067	-0.069	-0.084	-0.196	0.832	0.608	0.390	0.832	1.935	1.859	0.021	-0.010	-0.132
0.124	24.200	-0.072	-0.070	-0.091	-0.194	0.840	0.572	0.371	0.836	1.934	1.856	0.021	-0.013	-0.131
0.124	24.194	-0.076	-0.072	-0.094	-0.195	0.823	0.603	0.355	0.799	1.933	1.850	0.023	-0.017	-0.129
0.124	24.185	-0.081	-0.073	-0.099	-0.193	0.761	0.672	0.371	0.789	1.935	1.847	0.023	-0.017	-0.127
0.125	24.194	-0.083	-0.072	-0.104	-0.192	0.707	0.701	0.405	0.781	1.936	1.860	0.025	-0.017	-0.123
0.125	24.185	-0.085	-0.072	-0.107	-0.191	0.729	0.662	0.422	0.786	1.933	1.849	0.029	-0.017	-0.118
0.125	24.185	-0.085	-0.077	-0.110	-0.189	0.774	0.581	0.414	0.779	1.932	1.855	0.031	-0.016	-0.113
0.125	24.164	-0.087	-0.077	-0.113	-0.187	0.823	0.533	0.387	0.823	1.931	1.848	0.034	-0.014	-0.105
0.125	24.185	-0.088	-0.079	-0.116	-0.183	0.881	0.517	0.351	0.861	1.935	1.852	0.037	-0.010	-0.099
0.126	24.173	-0.090	-0.082	-0.117	-0.179	0.854	0.519	0.326	0.854	1.933	1.849	0.041	-0.006	-0.090
0.126	24.185	-0.092	-0.083	-0.117	-0.173	0.785	0.562	0.348	0.849	1.935	1.848	0.044	-0.003	-0.083
0.126	24.200	-0.096	-0.084	-0.119	-0.165	0.734	0.607	0.377	0.827	1.934	1.852	0.046	0.003	-0.076
0.126	24.179	-0.099	-0.087	-0.119	-0.157	0.701	0.605	0.408	0.825	1.937	1.845	0.050	0.007	-0.065
0.126	24.176	-0.099	-0.088	-0.118	-0.146	0.728	0.571	0.452	0.857	1.931	1.850	0.052	0.012	-0.056
0.127	24.170	-0.100	-0.091	-0.115	-0.134	0.766	0.524	0.429	0.910	1.931	1.851	0.053	0.016	-0.047
0.127	24.167	-0.098	-0.091	-0.113	-0.119	0.828	0.495	0.419	0.965	1.932	1.843	0.055	0.020	-0.038
0.127	24.164	-0.096	-0.093	-0.108	-0.101	0.849	0.478	0.367	0.997	1.931	1.846	0.057	0.023	-0.030
0.127	24.167	-0.092	-0.093	-0.105	-0.085	0.857	0.502	0.344	0.982	1.936	1.845	0.055	0.027	-0.025
0.127	24.170	-0.090	-0.093	-0.099	-0.068	0.817	0.534	0.330	0.968	1.937	1.852	0.055	0.031	-0.018
0.128	24.164	-0.090	-0.092	-0.090	-0.047	0.780	0.574	0.318	0.944	1.933	1.850	0.053	0.034	-0.012
0.128	24.170	-0.087	-0.091	-0.083	-0.025	0.771	0.566	0.293	0.963	1.927	1.848	0.049	0.034	-0.009
0.128	24.176	-0.087	-0.091	-0.075	-0.000	0.807	0.531	0.266	0.940	1.922	1.839	0.043	0.034	-0.005
0.128	24.161	-0.086	-0.091	-0.066	0.022	0.850	0.516	0.241	1.015	1.928	1.848	0.039	0.033	-0.004
0.128	24.161	-0.085	-0.088	-0.057	0.046	0.866	0.480	0.263	1.054	1.935	1.845	0.032	0.033	-0.002
0.129	24.167	-0.084	-0.086	-0.046	0.069	0.874	0.488	0.237	1.065	1.930	1.838	0.026	0.032	-0.004
0.129	24.164	-0.080	-0.085	-0.036	0.089	0.849	0.504	0.245	1.062	1.931	1.844	0.019	0.030	-0.005
0.129	24.161	-0.077	-0.083	-0.026	0.107	0.844	0.526	0.198	1.040	1.937	1.844	0.010	0.032	-0.009
0.129	24.149	-0.075	-0.080	-0.016	0.123	0.838	0.533	0.182	1.033	1.932	1.845	0.002	0.030	-0.013
0.129	24.158	-0.072	-0.082	-0.006	0.136	0.843	0.535	0.170	1.044	1.937	1.840	-0.007	0.028	-0.017
0.130	24.149	-0.070	-0.081	0.002	0.147	0.877	0.508	0.121	1.016	1.927	1.840	-0.015	0.028	-0.023
0.130	24.152	-0.067	-0.080	0.012	0.155	0.901	0.481	0.153	1.020	1.932	1.840	-0.025	0.029	-0.029
0.130	24.152	-0.067	-0.079	0.022	0.158	0.924	0.464	0.160	1.013	1.931	1.836	-0.033	0.031	-0.036
0.130	24.149	-0.065	-0.078	0.031	0.161	0.902	0.461	0.181	1.026	1.927	1.832	-0.041	0.034	-0.044
0.130	24.146	-0.060	-0.080	0.041	0.160	0.864	0.509	0.205	1.025	1.926	1.839	-0.048	0.035	-0.053
0.131	24.136	-0.055	-0.084	0.048	0.158	0.805	0.543	0.185	1.040	1.927	1.839	-0.052	0.037	-0.061
0.131	24.155	-0.055	-0.085	0.056	0.155	0.734	0.512	0.165	1.047	1.922	1.830	-0.055	0.043	-0.071
0.131	24.103	-0.053	-0.081	0.062	0.150	0.688	0.526	0.162	1.011	1.917	1.827	-0.061	0.047	-0.082
0.131	24.142	-0.052	-0.084	0.069	0.148	0.681	0.523	0.180	0.995	1.926	1.827	-0.063	0.051	-0.090
0.131	24.149	-0.051	-0.085	0.073	0.145	0.696	0.513	0.233	0.989	1.923	1.835	-0.065	0.055	-0.102
0.132	24.127	-0.049	-0.085	0.078	0.141	0.732	0.540	0.276	0.980	1.935	1.828	-0.069	0.060	-0.111
0.132	24.142	-0.048	-0.087	0.081	0.137	0.763	0.520	0.291	0.996	1.922	1.831	-0.069	0.066	-0.119
0.132	24.121	-0.039	-0.087	0.084	0.136	0.808	0.496	0.295	1.030	1.927	1.829	-0.069	0.070	-0.126
0.132	24.130	-0.038	-0.090	0.082	0.136	0.786	0.516	0.272	1.069	1.916	1.829	-0.069	0.075	-0.132
0.132	24.124	-0.035	-0.092	0.082	0.134	0.742	0.523	0.281	1.092	1.914	1.832	-0.069	0.080	-0.137
0.133	24.130	-0.031	-0.095	0.080	0.134	0.717	0.532	0.296	1.091	1.914	1.826	-0.069	0.085	-0.141
0.133	24.103	-0.027	-0.097	0.074	0.137	0.704	0.534	0.325	1.058	1.922	1.826	-0.068	0.091	-0.144
0.133	24.136	-0.025	-0.100	0.070	0.137	0.726	0.546	0.355	1.027	1.915	1.828	-0.067	0.096	-0.145
0.133	24.106	-0.022	-0.102	0.063	0.144	0.771	0.533	0.377	1.011	1.922	1.832	-0.063	0.100	-0.144
0.133	24.136	-0.019	-0.101	0.055	0.150	0.821	0.547	0.414	1.018	1.921	1.835	-0.061	0.106	-0.142
0.134	24.112	-0.014	-0.104	0.047	0.153	0.817	0.534	0.420	1.066	1.911	1.832	-0.060	0.111	-0.134
0.134	24.097	-0.009	-0.104	0.038	0.157	0.786	0.536	0.399	1.096	1.915	1.825	-0.058	0.116	-0.132
0.134	24.097	-0.003	-0.104	0.027	0.162	0.713	0.530	0.366	1.132	1.915	1.828	-0.057	0.121	-0.127
0.134	24.103	0.002	-0.104	0.017	0.163	0.653	0.512	0.326	1.165	1.928	1.823	-0.055	0.124	-0.118
0.134	24.121	0.008	-0.103	0.005	0.169	0.666	0.523	0.377	1.174	1.910	1.827	-0.052	0.128	-0.111
0.135	24.103	0.012	-0.103	-0.004	0.172	0.675	0.504	0.402	1.193	1.913	1.828	-0.052	0.133	-0.102
0.135	24.097	0.013	-0.101	-0.015	0.173	0.706	0.525	0.444	1.214	1.912	1.828	-0.048	0.136	-0.094
0.135	24.109	0.016	-0.101	-0.026	0.173	0.730	0.495	0.474	1.258	1.908	1.820	-0.050	0.138	-0.086
0.135	24.091	0.016	-0.099	-0.038	0.171	0.702	0.483	0.475	1.289	1.915	1.822	-0.048	0.139	-0.079
0.135	24.072	0.017	-0.099	-0.048	0.171	0.655	0.451	0.500	1.296	1.908	1.823	-0.048	0.141	-0.074
0.136	24.088	0.018	-0.097	-0.060	0.167	0.629	0.438	0.518	1.277	1.910	1.823	-0.047	0.139	-0.068
0.136	24.100	0.021	-0.096	-0.072	0.166	0.622	0.432	0.566	1.203	1.913	1.823	-0.046	0.136	-0.062
0.136	24.094	0.025	-0.094	-0.084	0.163	0.648	0.439	0.626	1.119	1.910	1.823	-0.046	0.134	-0.063
0.136	24.094	0.028	-0.092	-0.100	0.154	0.674	0.408	0.641	1.058	1.915	1.817	-0.046	0.131	-0.062
0.136	24.097	0.031	-0.091	-0.112	0.145	0.710	0.398	0.647	1.017	1.909	1.815	-0.045	0.125	-0.063
0.137	24.097	0.032	-0.089	-0.127	0.136	0.729	0.392	0.627	1.037	1.901	1.824	-0.043	0.120	-0.066
0.137	24.091	0.033	-0.087	-0.137	0.125	0.715	0.357	0.582	1.081	1.907	1.825	-0.042	0.115	-0.070
0.137	24.072	0.032	-0.086	-0.147	0.111	0.669	0.337	0.548	1.142	1.910	1.820	-0.044	0.108	-0.077
0.137	24.078	0.032	-0.085	-0.162	0.100	0.633	0.320	0.561	1.189	1.911	1.812	-0.046	0.102	-0.084
0.137	24.078	0.031	-0.082	-0.174	0.087	0.627	0.317	0.603	1.191	1.902	1.810	-0.043	0.092	-0.093
0.138	24.088	0.031	-0.080	-0.185	0.072	0.642	0.306	0.663	1.176	1.895	1.811	-0.042	0.086	-0.103
0.138	24.066	0.030	-0.078	-0.194	0.059	0.681	0.322	0.691	1.167	1.892	1.811	-0.041	0.076	-0.112
0.138	24.075	0.031	-0.074	-0.199	0.047	0.720	0.279	0.641	1.191	1.898	1.815	-0.041	0.067	-0.121
0.138	24.066	0.030	-0.075	-0.208	0.034	0.735	0.260	0.554	1.254	1.904	1.815	-0.039	0.060	-0.130
0.138	24.078	0.027	-0.073	-0.215	0.023	0.681	0.245	0.450	1.311	1.900	1.812	-0.038	0.051	-0.141
0.139	24.060	0.027	-0.071	-0.220	0.011	0.631	0.235	0.397	1.321	1.899	1.811	-0.039	0.044	-0.150
0.139	24.060	0.026	-0.073	-0.227	-0.001	0.582	0.238	0.402	1.280	1.903	1.811	-0.038	0.036	-0.159
0.139	24.060	0.022	-0.073	-0.230	-0.013	0.562	0.267	0.463	1.215	1.892	1.805	-0.037	0.030	-0.164
0.139	24.060	0.020	-0.074	-0.234	-0.023	0.568	0.257	0.545	1.149	1.897	1.805	-0.036	0.022	-0.171
0.139	24.069	0.018	-0.073	-0.236	-0.033	0.602	0.208	0.581	1.149	1.891	1.808	-0.032	0.018	-0.173
0.140	24.066	0.016	-0.073	-0.241	-0.044	0.631	0.180	0.554	1.210	1.897	1.811	-0.034	0.012	-0.180
0.140	24.078	0.014	-0.076	-0.244	-0.049	0.628	0.130	0.496	1.358	1.898	1.805	-0.034	0.008	-0.181
0.140	24.057	0.014	-0.077	-0.249	-0.058	0.646	0.123	0.416	1.489	1.884	1.808	-0.033	0.004	-0.182
0.140	24.057	0.009	-0.079	-0.252	-0.060	0.607	0.126	0.414	1.548	1.893	1.809	-0.033	0.002	-0.181
0.140	24.072	0.007	-0.082	-0.256	-0.065	0.578	0.125	0.473	1.520	1.887	1.808	-0.030	0.002	-0.179
0.141	24.072	0.005	-0.083	-0.259	-0.069	0.578	0.132	0.561	1.437	1.894	1.806	-0.032	-0.002	-0.176
0.141	24.057	0.000	-0.089	-0.263	-0.070	0.605	0.130	0.626	1.354	1.900	1.807	-0.031	0.002	-0.171
0.141	24.039	-0.005	-0.093	-0.267	-0.072	0.607	0.096	0.655	1.311	1.892	1.807	-0.030	0.006	-0.168
0.141	24.051	-0.010	-0.095	-0.270	-0.074	0.652	0.083	0.611	1.354	1.896	1.803	-0.030	0.007	-0.165
0.141	24.066	-0.014	-0.101	-0.272	-0.075	0.647	0.038	0.492	1.451	1.893	1.808	-0.028	0.009	-0.155
0.142	24.057	-0.015	-0.103	-0.278	-0.077	0.647	0.049	0.440	1.514	1.886	1.803	-0.026	0.013	-0.151
0.142	24.026	-0.018	-0.107	-0.281	-0.078	0.602	0.080	0.427	1.564	1.888	1.806	-0.026	0.019	-0.139
0.142	24.051	-0.021	-0.109	-0.281	-0.081	0.566	0.104	0.496	1.540	1.893	1.802	-0.023	0.024	-0.139
0.142	24.054	-0.022	-0.110	-0.279	-0.084	0.592	0.145	0.613	1.500	1.891	1.807	-0.021	0.031	-0.134
0.142	24.060	-0.024	-0.110	-0.279	-0.086	0.622	0.160	0.691	1.457	1.895	1.800	-0.019	0.038	-0.127
0.143	24.026	-0.028	-0.110	-0.277	-0.092	0.657	0.165	0.707	1.462	1.889	1.807	-0.013	0.045	-0.123
0.143	24.060	-0.031	-0.109	-0.271	-0.096	0.718	0.161	0.643	1.503	1.881	1.803	-0.009	0.052	-0.118
0.143	24.051	-0.034	-0.109	-0.266	-0.104	0.738	0.175	0.570	1.560	1.889	1.798	-0.004	0.060	-0.113
0.143	24.054	-0.038	-0.109	-0.261	-0.110	0.718	0.192	0.521	1.565	1.886	1.800	0.002	0.066	-0.111
0.143	24.048	-0.040	-0.110	-0.253	-0.116	0.667	0.214	0.536	1.490	1.884	1.798	0.007	0.074	-0.108
0.144	24.048	-0.044	-0.107	-0.246	-0.124	0.629	0.221	0.621	1.408	1.883	1.795	0.011	0.081	-0.107
0.144	24.048	-0.045	-0.109	-0.239	-0.129	0.603	0.214	0.722	1.298	1.889	1.798	0.017	0.087	-0.105
0.144	24.063	-0.047	-0.110	-0.227	-0.135	0.603	0.226	0.823	1.273	1.885	1.798	0.022	0.092	-0.104
0.144	24.054	-0.052	-0.111	-0.219	-0.140	0.619	0.197	0.849	1.302	1.887	1.803	0.028	0.098	-0.102
0.144	24.066	-0.055	-0.108	-0.209	-0.141	0.640	0.189	0.797	1.372	1.883	1.791	0.033	0.102	-0.101
0.145	24.066	-0.056	-0.106	-0.196	-0.141	0.637	0.168	0.712	1.453	1.887	1.799	0.038	0.106	-0.104
0.145	24.057	-0.057	-0.106	-0.185	-0.142	0.622	0.183	0.668	1.457	1.888	1.797	0.039	0.108	-0.103
0.145	24.057	-0.058	-0.106	-0.176	-0.140	0.574	0.203	0.704	1.410	1.880	1.792	0.044	0.109	-0.103
0.145	24.066	-0.055	-0.106	-0.168	-0.137	0.572	0.240	0.799	1.295	1.887	1.789	0.048	0.108	-0.105
0.145	24.048	-0.056	-0.104	-0.156	-0.134	0.572	0.239	0.922	1.159	1.876	1.787	0.049	0.109	-0.107
0.146	24.063	-0.052	-0.103	-0.148	-0.129	0.619	0.227	0.951	1.079	1.882	1.792	0.050	0.108	-0.108
0.146	24.088	-0.052	-0.103	-0.138	-0.124	0.679	0.209	0.896	1.096	1.890	1.788	0.050	0.108	-0.108
0.146	24.069	-0.050	-0.105	-0.128	-0.119	0.678	0.193	0.784	1.156	1.887	1.790	0.049	0.104	-0.111
0.146	24.051	-0.050	-0.104	-0.121	-0.115	0.676	0.217	0.684	1.254	1.890	1.792	0.049	0.103	-0.110
0.146	24.045	-0.049	-0.103	-0.112	-0.107	0.610	0.229	0.597	1.345	1.890	1.790	0.046	0.101	-0.109
0.147	24.066	-0.049	-0.103	-0.104	-0.101	0.544	0.244	0.585	1.363	1.883	1.788	0.043	0.099	-0.111
0.147	24.066	-0.048	-0.102	-0.096	-0.091	0.498	0.253	0.609	1.318	1.883	1.787	0.039	0.097	-0.111
0.147	24.069	-0.046	-0.099	-0.089	-0.085	0.509	0.275	0.700	1.262	1.876	1.792	0.035	0.095	-0.110
0.147	24.054	-0.045	-0.101	-0.083	-0.077	0.540	0.266	0.769	1.265	1.891	1.787	0.029	0.093	-0.109
0.147	24.060	-0.042	-0.101	-0.076	-0.068	0.613	0.271	0.738	1.337	1.885	1.787	0.026	0.094	-0.108
0.148	24.045	-0.039	-0.099	-0.073	-0.060	0.668	0.279	0.691	1.427	1.889	1.784	0.020	0.093	-0.107
0.148	24.057	-0.036	-0.098	-0.068	-0.050	0.679	0.293	0.609	1.535	1.883	1.785	0.015	0.095	-0.105
0.148	24.057	-0.036	-0.096	-0.065	-0.041	0.638	0.291	0.570	1.615	1.879	1.789	0.010	0.097	-0.103
0.148	24.045	-0.031	-0.093	-0.061	-0.030	0.596	0.289	0.565	1.595	1.886	1.787	0.002	0.100	-0.100
0.148	24.057	-0.029	-0.094	-0.057	-0.022	0.533	0.280	0.620	1.508	1.886	1.790	-0.001	0.103	-0.099
0.149	24.057	-0.022	-0.092	-0.054	-0.014	0.544	0.262	0.694	1.406	1.888	1.788	-0.008	0.108	-0.097
0.149	24.045	-0.020	-0.093	-0.049	-0.004	0.568	0.263	0.706	1.361	1.888	1.782	-0.013	0.113	-0.094
0.149	24.036	-0.012	-0.093	-0.044	0.006	0.626	0.237	0.688	1.332	1.884	1.785	-0.018	0.118	-0.092
0.149	24.039	-0.009	-0.092	-0.039	0.015	0.687	0.245	0.607	1.417	1.879	1.787	-0.021	0.125	-0.094
0.149	24.030	-0.007	-0.092	-0.033	0.024	0.711	0.276	0.528	1.503	1.883	1.787	-0.024	0.132	-0.093
0.150	24.036	-0.006	-0.091	-0.029	0.033	0.704	0.322	0.469	1.543	1.883	1.778	-0.024	0.138	-0.094
0.150	24.017	-0.001	-0.091	-0.021	0.038	0.680	0.316	0.458	1.610	1.879	1.789	-0.027	0.144	-0.094
0.150	24.005	0.004	-0.090	-0.013	0.045	0.671	0.296	0.472	1.597	1.878	1.783	-0.028	0.149	-0.096
0.150	24.008	0.006	-0.090	-0.002	0.049	0.662	0.263	0.540	1.545	1.883	1.782	-0.029	0.155	-0.098
0.150	23.993	0.010	-0.089	0.010	0.055	0.648	0.215	0.559	1.523	1.886	1.789	-0.030	0.159	-0.100
0.151	23.996	0.009	-0.087	0.021	0.057	0.651	0.202	0.528	1.518	1.876	1.782	-0.028	0.164	-0.105
0.151	24.005	0.016	-0.085	0.033	0.061	0.656	0.189	0.472	1.578	1.880	1.784	-0.028	0.168	-0.108
0.151	23.996	0.021	-0.086	0.047	0.061	0.651	0.203	0.366	1.637	1.887	1.785	-0.027	0.166	-0.111
0.151	23.993	0.022	-0.086	0.059	0.064	0.634	0.216	0.303	1.658	1.876	1.786	-0.025	0.167	-0.117
0.151	23.990	0.024	-0.085	0.071	0.064	0.656	0.237	0.279	1.627	1.882	1.782	-0.025	0.167	-0.119
0.152	23.996	0.027	-0.087	0.083	0.064	0.651	0.191	0.295	1.579	1.878	1.785	-0.022	0.166	-0.123
0.152	23.996	0.031	-0.085	0.097	0.063	0.676	0.195	0.325	1.503	1.880	1.782	-0.020	0.164	-0.127
0.152	23.987	0.032	-0.088	0.109	0.060	0.705	0.150	0.293	1.478	1.882	1.785	-0.020	0.163	-0.128
0.152	23.972	0.035	-0.088	0.120	0.059	0.727	0.168	0.240	1.502	1.878	1.782	-0.017	0.159	-0.132
0.152	23.984	0.037	-0.089	0.129	0.058	0.748	0.145	0.173	1.589	1.878	1.779	-0.015	0.154	-0.133
0.153	23.978	0.038	-0.089	0.136	0.055	0.765	0.177	0.136	1.669	1.884	1.775	-0.013	0.151	-0.133
0.153	23.996	0.038	-0.089	0.140	0.055	0.754	0.193	0.174	1.731	1.880	1.779	-0.011	0.147	-0.135
0.153	23.996	0.039	-0.087	0.144	0.048	0.739	0.193	0.300	1.733	1.879	1.776	-0.009	0.147	-0.136
0.153	23.990	0.038	-0.085	0.145	0.044	0.738	0.171	0.426	1.676	1.885	1.784	-0.005	0.141	-0.136
0.153	23.996	0.039	-0.085	0.145	0.043	0.730	0.125	0.518	1.612	1.875	1.779	-0.002	0.142	-0.136
0.154	23.981	0.039	-0.082	0.138	0.040	0.747	0.117	0.526	1.636	1.876	1.776	0.001	0.137	-0.137
0.154	24.008	0.040	-0.081	0.130	0.037	0.779	0.125	0.445	1.687	1.878	1.776	0.004	0.136	-0.136
0.154	23.993	0.041	-0.078	0.119	0.037	0.825	0.165	0.328	1.732	1.877	1.776	0.010	0.134	-0.137
0.154	24.036	0.044	-0.076	0.103	0.037	0.859	0.232	0.223	1.765	1.870	1.775	0.016	0.135	-0.139
0.154	24.002	0.046	-0.070	0.091	0.036	0.869	0.252	0.178	1.724	1.874	1.774	0.021	0.137	-0.139
0.155	24.011	0.047	-0.067	0.074	0.038	0.852	0.243	0.218	1.626	1.869	1.780	0.026	0.135	-0.140
0.155	24.020	0.050	-0.063	0.056	0.041	0.846	0.193	0.316	1.526	1.870	1.770	0.031	0.136	-0.141
0.155	24.008	0.049	-0.060	0.038	0.044	0.845	0.156	0.380	1.498	1.874	1.774	0.037	0.138	-0.143
0.155	24.020	0.049	-0.059	0.021	0.047	0.860	0.114	0.330	1.528	1.877	1.776	0.044	0.138	-0.143
0.155	24.011	0.048	-0.056	0.004	0.053	0.888	0.186	0.254	1.657	1.874	1.775	0.048	0.138	-0.145
0.156	24.020	0.044	-0.055	-0.014	0.060	0.899	0.268	0.169	1.790	1.873	1.778	0.053	0.140	-0.148
0.156	24.039	0.043	-0.052	-0.032	0.068	0.914	0.323	0.093	1.896	1.871	1.771	0.058	0.140	-0.151
0.156	24.023	0.041	-0.048	-0.047	0.074	0.908	0.352	0.109	1.906	1.872	1.771	0.062	0.142	-0.152
0.156	24.039	0.041	-0.046	-0.061	0.084	0.895	0.347	0.182	1.862	1.872	1.771	0.064	0.140	-0.154
0.156	24.039	0.041	-0.045	-0.076	0.093	0.869	0.299	0.250	1.774	1.874	1.774	0.069	0.137	-0.155
0.157	24.057	0.041	-0.042	-0.087	0.099	0.841	0.268	0.290	1.723	1.872	1.771	0.070	0.135	-0.162
0.157	24.054	0.040	-0.042	-0.096	0.102	0.836	0.239	0.304	1.722	1.867	1.775	0.072	0.131	-0.162
0.157	24.060	0.041	-0.039	-0.106	0.107	0.850	0.265	0.275	1.782	1.872	1.769	0.074	0.127	-0.164
0.157	24.060	0.039	-0.037	-0.115	0.107	0.822	0.320	0.243	1.822	1.870	1.772	0.073	0.121	-0.167
0.157	24.078	0.036	-0.039	-0.119	0.104	0.797	0.348	0.217	1.845	1.870	1.774	0.073	0.114	-0.169
0.158	24.066	0.034	-0.040	-0.125	0.095	0.796	0.349	0.214	1.811	1.872	1.769	0.071	0.109	-0.172
0.158	24.081	0.034	-0.041	-0.132	0.089	0.769	0.290	0.253	1.782	1.870	1.774	0.067	0.100	-0.173
0.158	24.072	0.029	-0.042	-0.135	0.079	0.759	0.298	0.270	1.755	1.869	1.772	0.067	0.093	-0.175
0.158	24.072	0.024	-0.042	-0.140	0.066	0.738	0.304	0.296	1.720	1.870	1.770	0.063	0.085	-0.180
0.158	24.078	0.024	-0.043	-0.143	0.053	0.728	0.331	0.298	1.745	1.862	1.766	0.060	0.077	-0.183
0.159	24.078	0.023	-0.042	-0.149	0.036	0.711	0.365	0.295	1.763	1.867	1.767	0.058	0.071	-0.187
0.159	24.069	0.019	-0.041	-0.155	0.020	0.693	0.436	0.264	1.809	1.868	1.771	0.054	0.063	-0.190
0.159	24.103	0.016	-0.042	-0.164	0.004	0.668	0.468	0.234	1.801	1.859	1.772	0.051	0.057	-0.194
0.159	24.075	0.013	-0.042	-0.171	-0.013	0.651	0.474	0.209	1.782	1.870	1.776	0.048	0.052	-0.200
0.159	24.078	0.007	-0.043	-0.180	-0.027	0.632	0.472	0.175	1.796	1.877	1.774	0.045	0.046	-0.202
0.160	24.094	0.004	-0.044	-0.189	-0.041	0.641	0.437	0.163	1.768	1.865	1.774	0.042	0.042	-0.203
0.160	24.084	-0.002	-0.045	-0.198	-0.051	0.658	0.428	0.123	1.765	1.859	1.771	0.040	0.038	-0.203
0.160	24.088	-0.005	-0.045	-0.209	-0.060	0.653	0.437	0.124	1.760	1.866	1.763	0.038	0.037	-0.210
0.160	24.078	-0.012	-0.044	-0.220	-0.067	0.654	0.444	0.123	1.791	1.864	1.767	0.036	0.035	-0.212
0.160	24.106	-0.016	-0.047	-0.234	-0.072	0.625	0.472	0.096	1.823	1.863	1.766	0.035	0.035	-0.215
0.161	24.084	-0.020	-0.048	-0.247	-0.074	0.585	0.487	0.048	1.856	1.861	1.775	0.033	0.037	-0.216
0.161	24.066	-0.024	-0.048	-0.261	-0.072	0.557	0.484	0.043	1.841	1.861	1.773	0.036	0.038	-0.219
0.161	24.100	-0.023	-0.049	-0.275	-0.071	0.582	0.483	0.054	1.832	1.863	1.768	0.033	0.035	-0.219
0.161	24.075	-0.026	-0.054	-0.287	-0.069	0.577	0.443	0.082	1.838	1.867	1.761	0.033	0.041	-0.218
0.161	24.084	-0.029	-0.053	-0.301	-0.064	0.579	0.426	0.132	1.827	1.864	1.769	0.034	0.047	-0.222
0.162	24.069	-0.035	-0.058	-0.314	-0.063	0.620	0.391	0.163	1.877	1.870	1.769	0.032	0.047	-0.218
0.162	24.088	-0.038	-0.061	-0.325	-0.061	0.616	0.369	0.156	1.898	1.868	1.764	0.034	0.048	-0.220
0.162	24.078	-0.043	-0.062	-0.335	-0.060	0.598	0.392	0.125	1.928	1.867	1.770	0.034	0.051	-0.217
0.162	24.075	-0.047	-0.067	-0.348	-0.057	0.586	0.404	0.108	1.981	1.867	1.768	0.034	0.052	-0.214
0.162	24.091	-0.049	-0.066	-0.352	-0.056	0.584	0.446	0.100	1.989	1.870	1.773	0.033	0.054	-0.210
0.163	24.069	-0.051	-0.071	-0.358	-0.059	0.585	0.438	0.087	1.973	1.863	1.771	0.031	0.053	-0.209
0.163	24.081	-0.052	-0.074	-0.365	-0.064	0.591	0.427	0.093	1.924	1.865	1.770	0.030	0.054	-0.205
0.163	24.069	-0.052	-0.077	-0.364	-0.070	0.618	0.413	0.068	1.890	1.863	1.761	0.029	0.056	-0.201
0.163	24.069	-0.053	-0.078	-0.365	-0.078	0.622	0.409	0.063	1.892	1.860	1.766	0.027	0.052	-0.195
0.163	24.075	-0.054	-0.084	-0.366	-0.091	0.638	0.404	0.021	1.922	1.867	1.760	0.026	0.051	-0.190
0.164	24.060	-0.056	-0.086	-0.362	-0.103	0.644	0.419	-0.080	1.973	1.860	1.767	0.023	0.048	-0.184
0.164	24.091	-0.056	-0.088	-0.355	-0.116	0.657	0.465	-0.184	1.988	1.860	1.769	0.021	0.047	-0.179
0.164	24.054	-0.058	-0.092	-0.351	-0.131	0.657	0.484	-0.237	1.976	1.861	1.766	0.019	0.044	-0.171
0.164	24.094	-0.061	-0.093	-0.342	-0.147	0.643	0.500	-0.258	1.919	1.864	1.766	0.016	0.041	-0.166
0.164	24.069	-0.058	-0.095	-0.334	-0.161	0.639	0.521	-0.204	1.906	1.866	1.767	0.013	0.039	-0.160
0.165	24.084	-0.058	-0.098	-0.325	-0.175	0.614	0.494	-0.131	1.916	1.861	1.766	0.010	0.036	-0.154
0.165	24.088	-0.059	-0.098	-0.316	-0.189	0.586	0.475	-0.104	1.979	1.863	1.764	0.007	0.033	-0.149
0.165	24.091	-0.060	-0.096	-0.305	-0.200	0.585	0.475	-0.119	2.048	1.859	1.761	0.003	0.031	-0.146
0.165	24.084	-0.060	-0.100	-0.297	-0.210	0.584	0.493	-0.229	2.096	1.866	1.756	0.000	0.029	-0.143
0.165	24.078	-0.061	-0.099	-0.288	-0.220	0.611	0.551	-0.305	2.058	1.865	1.763	-0.000	0.027	-0.143
0.166	24.106	-0.061	-0.101	-0.280	-0.228	0.630	0.599	-0.328	1.980	1.856	1.769	-0.001	0.026	-0.143
0.166	24.091	-0.063	-0.101	-0.271	-0.234	0.639	0.621	-0.319	1.867	1.857	1.768	-0.002	0.026	-0.143
0.166	24.075	-0.061	-0.102	-0.261	-0.240	0.616	0.601	-0.256	1.778	1.855	1.773	-0.002	0.025	-0.144
0.166	24.094	-0.061	-0.103	-0.254	-0.243	0.590	0.577	-0.201	1.714	1.853	1.769	-0.004	0.024	-0.148
0.166	24.088	-0.060	-0.104	-0.247	-0.248	0.566	0.548	-0.173	1.675	1.854	1.767	-0.004	0.024	-0.154
0.167	24.106	-0.058	-0.103	-0.239	-0.250	0.558	0.580	-0.193	1.695	1.860	1.761	-0.005	0.024	-0.158
0.167	24.097	-0.063	-0.104	-0.233	-0.251	0.565	0.645	-0.246	1.719	1.856	1.767	-0.005	0.024	-0.162
0.167	24.081	-0.062	-0.103	-0.224	-0.250	0.590	0.665	-0.288	1.735	1.860	1.767	-0.007	0.026	-0.169
0.167	24.106	-0.063	-0.101	-0.218	-0.249	0.662	0.704	-0.293	1.726	1.860	1.769	-0.006	0.026	-0.174
0.167	24.088	-0.064	-0.103	-0.212	-0.247	0.688	0.715	-0.251	1.692	1.874	1.772	-0.008	0.027	-0.180
0.168	24.118	-0.063	-0.103	-0.204	-0.244	0.694	0.730	-0.191	1.656	1.865	1.766	-0.009	0.026	-0.184
0.168	24.094	-0.067	-0.103	-0.198	-0.240	0.701	0.731	-0.130	1.633	1.867	1.770	-0.009	0.029	-0.189
0.168	24.115	-0.065	-0.105	-0.192	-0.238	0.647	0.735	-0.128	1.659	1.855	1.768	-0.011	0.030	-0.194
0.168	24.094	-0.067	-0.108	-0.187	-0.231	0.622	0.739	-0.169	1.673	1.865	1.771	-0.013	0.031	-0.195
0.168	24.103	-0.068	-0.111	-0.180	-0.223	0.655	0.773	-0.231	1.708	1.868	1.771	-0.016	0.031	-0.196
0.169	24.127	-0.068	-0.114	-0.173	-0.216	0.683	0.789	-0.304	1.713	1.858	1.765	-0.018	0.033	-0.196
0.169	24.097	-0.069	-0.118	-0.170	-0.206	0.728	0.803	-0.336	1.682	1.856	1.767	-0.020	0.031	-0.195
0.169	24.127	-0.073	-0.120	-0.167	-0.197	0.773	0.774	-0.332	1.664	1.855	1.768	-0.021	0.032	-0.194
0.169	24.106	-0.072	-0.125	-0.164	-0.187	0.795	0.734	-0.311	1.637	1.859	1.768	-0.024	0.034	-0.190
0.169	24.106	-0.071	-0.129	-0.162	-0.175	0.799	0.708	-0.267	1.625	1.861	1.770	-0.026	0.033	-0.188
0.170	24.100	-0.072	-0.136	-0.159	-0.165	0.810	0.711	-0.240	1.677	1.859	1.770	-0.028	0.033	-0.183
0.170	24.094	-0.072	-0.137	-0.158	-0.152	0.812	0.740	-0.227	1.702	1.860	1.765	-0.030	0.033	-0.177
0.170	24.097	-0.072	-0.140	-0.155	-0.138	0.820	0.764	-0.252	1.700	1.846	1.766	-0.031	0.036	-0.174
0.170	24.078	-0.074	-0.143	-0.154	-0.132	0.853	0.772	-0.290	1.721	1.856	1.764	-0.033	0.038	-0.165
0.170	24.115	-0.073	-0.145	-0.150	-0.124	0.873	0.744	-0.291	1.673	1.854	1.766	-0.032	0.039	-0.157
0.171	24.094	-0.072	-0.146	-0.147	-0.115	0.901	0.717	-0.244	1.652	1.856	1.762	-0.034	0.040	-0.150
0.171	24.075	-0.074	-0.147	-0.145	-0.106	0.889	0.656	-0.158	1.661	1.860	1.762	-0.035	0.045	-0.143
0.171	24.091	-0.075	-0.146	-0.140	-0.098	0.868	0.622	-0.099	1.642	1.862	1.766	-0.034	0.049	-0.136
0.171	24.094	-0.070	-0.146	-0.139	-0.090	0.878	0.607	-0.104	1.647	1.861	1.763	-0.034	0.047	-0.128
0.171	24.078	-0.071	-0.146	-0.137	-0.083	0.857	0.613	-0.150	1.649	1.864	1.766	-0.032	0.053	-0.122
0.172	24.066	-0.070	-0.142	-0.130	-0.077	0.866	0.672	-0.213	1.600	1.855	1.767	-0.031	0.055	-0.117
0.172	24.072	-0.071	-0.146	-0.124	-0.069	0.895	0.675	-0.242	1.564	1.859	1.767	-0.029	0.060	-0.109
0.172	24.066	-0.069	-0.140	-0.121	-0.062	0.888	0.686	-0.227	1.525	1.842	1.765	-0.028	0.065	-0.108
0.172	24.069	-0.070	-0.138	-0.115	-0.055	0.897	0.664	-0.168	1.475	1.854	1.759	-0.026	0.066	-0.102
0.172	24.078	-0.070	-0.135	-0.111	-0.047	0.899	0.631	-0.124	1.472	1.857	1.757	-0.023	0.070	-0.102
0.173	24.075	-0.071	-0.134	-0.109	-0.038	0.882	0.591	-0.125	1.467	1.854	1.762	-0.023	0.072	-0.100
0.173	24.060	-0.072	-0.131	-0.105	-0.028	0.866	0.615	-0.128	1.480	1.849	1.767	-0.023	0.074	-0.098
0.173	24.066	-0.072	-0.129	-0.102	-0.019	0.851	0.621	-0.132	1.464	1.852	1.772	-0.021	0.075	-0.098
0.173	24.066	-0.072	-0.129	-0.098	-0.007	0.852	0.631	-0.170	1.465	1.857	1.766	-0.021	0.076	-0.098
0.173	24.060	-0.072	-0.129	-0.097	0.002	0.849	0.656	-0.179	1.426	1.855	1.760	-0.020	0.076	-0.101
0.174	24.057	-0.070	-0.130	-0.094	0.013	0.888	0.646	-0.153	1.408	1.852	1.766	-0.021	0.076	-0.103
0.174	24.063	-0.069	-0.128	-0.091	0.024	0.907	0.629	-0.166	1.393	1.849	1.760	-0.021	0.076	-0.108
0.174	24.048	-0.067	-0.125	-0.088	0.034	0.949	0.609	-0.144	1.420	1.842	1.760	-0.022	0.070	-0.112
0.174	24.054	-0.067	-0.127	-0.087	0.042	0.975	0.611	-0.104	1.452	1.847	1.767	-0.023	0.067	-0.115
0.174	24.051	-0.065	-0.125	-0.083	0.050	0.966	0.581	-0.084	1.476	1.843	1.763	-0.025	0.063	-0.121
0.175	24.051	-0.067	-0.124	-0.079	0.057	0.937	0.582	-0.112	1.506	1.853	1.761	-0.026	0.059	-0.124
0.175	24.051	-0.068	-0.124	-0.077	0.062	0.904	0.579	-0.132	1.516	1.843	1.761	-0.029	0.054	-0.131
0.175	24.057	-0.068	-0.121	-0.072	0.065	0.904	0.549	-0.121	1.515	1.844	1.769	-0.032	0.049	-0.136
0.175	24.057	-0.070	-0.120	-0.071	0.066	0.928	0.548	-0.106	1.501	1.841	1.766	-0.032	0.043	-0.141
0.175	24.039	-0.069	-0.118	-0.067	0.067	0.954	0.548	-0.072	1.478	1.850	1.761	-0.034	0.036	-0.145
0.176	24.042	-0.065	-0.117	-0.066	0.069	0.990	0.547	-0.044	1.413	1.844	1.765	-0.035	0.029	-0.151
0.176	24.048	-0.063	-0.117	-0.066	0.068	1.017	0.566	0.010	1.346	1.854	1.757	-0.039	0.023	-0.154
0.176	24.033	-0.063	-0.116	-0.067	0.066	0.979	0.595	0.051	1.328	1.851	1.767	-0.041	0.017	-0.159
0.176	24.039	-0.064	-0.116	-0.068	0.066	0.971	0.638	0.045	1.328	1.844	1.755	-0.043	0.012	-0.162
0.176	24.051	-0.067	-0.114	-0.072	0.064	0.941	0.676	0.026	1.329	1.838	1.764	-0.045	0.004	-0.165
0.177	24.036	-0.068	-0.114	-0.076	0.064	0.930	0.698	-0.016	1.317	1.839	1.760	-0.046	0.002	-0.171
0.177	24.008	-0.070	-0.112	-0.084	0.063	0.963	0.683	-0.049	1.300	1.839	1.760	-0.048	-0.002	-0.175
0.177	24.033	-0.072	-0.112	-0.090	0.062	0.984	0.691	-0.054	1.296	1.832	1.758	-0.048	-0.006	-0.179
0.177	24.023	-0.071	-0.111	-0.101	0.062	1.009	0.701	-0.011	1.259	1.844	1.761	-0.047	-0.009	-0.181
0.177	24.042	-0.069	-0.109	-0.113	0.063	1.013	0.746	0.019	1.278	1.842	1.763	-0.045	-0.012	-0.183
0.178	24.045	-0.068	-0.109	-0.125	0.063	1.005	0.793	0.035	1.309	1.839	1.765	-0.047	-0.013	-0.185
0.178	24.042	-0.069	-0.108	-0.136	0.068	0.973	0.836	0.009	1.326	1.838	1.763	-0.047	-0.013	-0.189
0.178	24.048	-0.069	-0.107	-0.149	0.064	0.973	0.862	-0.008	1.329	1.832	1.762	-0.044	-0.016	-0.192
0.178	24.036	-0.073	-0.106	-0.163	0.063	0.966	0.864	-0.015	1.320	1.832	1.763	-0.045	-0.015	-0.191
0.178	24.048	-0.078	-0.107	-0.175	0.067	0.993	0.864	-0.012	1.269	1.839	1.767	-0.040	-0.013	-0.191
0.179	24.033	-0.082	-0.107	-0.187	0.067	1.022	0.859	0.015	1.221	1.825	1.767	-0.037	-0.013	-0.193
0.179	24.042	-0.086	-0.107	-0.200	0.068	1.039	0.853	0.020	1.154	1.831	1.762	-0.034	-0.011	-0.192
0.179	24.063	-0.089	-0.107	-0.211	0.066	1.015	0.861	0.054	1.177	1.829	1.761	-0.029	-0.009	-0.191
0.179	24.069	-0.089	-0.108	-0.223	0.064	0.994	0.840	0.109	1.198	1.827	1.764	-0.027	-0.005	-0.189
0.179	24.057	-0.090	-0.107	-0.228	0.056	0.949	0.840	0.132	1.249	1.825	1.760	-0.023	-0.002	-0.186
0.180	24.063	-0.091	-0.106	-0.236	0.049	0.916	0.834	0.180	1.258	1.839	1.758	-0.018	0.004	-0.185
0.180	24.066	-0.092	-0.103	-0.241	0.041	0.926	0.854	0.221	1.259	1.828	1.762	-0.015	0.003	-0.177
0.180	24.054	-0.094	-0.102	-0.247	0.028	0.925	0.864	0.280	1.212	1.835	1.761	-0.009	0.008	-0.174
0.180	24.051	-0.097	-0.102	-0.251	0.018	0.926	0.882	0.293	1.175	1.828	1.760	-0.006	0.012	-0.164
0.180	24.072	-0.100	-0.101	-0.251	0.005	0.917	0.922	0.326	1.138	1.824	1.766	-0.001	0.015	-0.160
0.181	24.094	-0.102	-0.100	-0.257	-0.007	0.908	0.929	0.369	1.094	1.834	1.761	0.005	0.019	-0.154
0.181	24.075	-0.102	-0.100	-0.262	-0.019	0.893	0.905	0.407	1.074	1.828	1.764	0.007	0.021	-0.145
0.181	24.081	-0.103	-0.099	-0.266	-0.030	0.878	0.884	0.448	1.078	1.822	1.763	0.014	0.026	-0.138
0.181	24.094	-0.102	-0.098	-0.269	-0.040	0.887	0.894	0.440	1.053	1.827	1.762	0.022	0.027	-0.130
0.181	24.112	-0.101	-0.100	-0.273	-0.047	0.930	0.900	0.411	1.037	1.826	1.766	0.024	0.028	-0.122
0.182	24.100	-0.103	-0.101	-0.278	-0.059	0.933	0.919	0.383	1.008	1.826	1.758	0.027	0.035	-0.116
0.182	24.088	-0.099	-0.099	-0.282	-0.068	0.944	0.951	0.354	0.925	1.830	1.762	0.031	0.036	-0.109
0.182	24.106	-0.101	-0.103	-0.286	-0.076	0.937	0.943	0.390	0.880	1.824	1.750	0.035	0.043	-0.102
0.182	24.094	-0.101	-0.099	-0.292	-0.086	0.934	0.938	0.473	0.847	1.832	1.764	0.038	0.043	-0.101
0.182	24.109	-0.100	-0.103	-0.298	-0.094	0.935	0.921	0.544	0.871	1.826	1.770	0.039	0.047	-0.094
0.183	24.106	-0.098	-0.104	-0.305	-0.104	0.931	0.890	0.575	0.938	1.823	1.765	0.042	0.048	-0.090
0.183	24.130	-0.095	-0.105	-0.313	-0.113	0.918	0.860	0.598	0.978	1.821	1.762	0.045	0.050	-0.088
0.183	24.121	-0.092	-0.103	-0.319	-0.124	0.921	0.882	0.567	1.014	1.827	1.757	0.044	0.053	-0.086
0.183	24.124	-0.089	-0.105	-0.327	-0.135	0.925	0.877	0.566	0.999	1.822	1.756	0.042	0.055	-0.086
0.183	24.106	-0.086	-0.105	-0.333	-0.145	0.929	0.883	0.573	0.932	1.824	1.757	0.042	0.057	-0.086
0.184	24.103	-0.084	-0.106	-0.340	-0.157	0.941	0.881	0.619	0.845	1.826	1.759	0.041	0.058	-0.087
0.184	24.106	-0.079	-0.106	-0.343	-0.170	0.944	0.852	0.722	0.801	1.826	1.754	0.039	0.060	-0.088
0.184	24.112	-0.075	-0.108	-0.348	-0.181	0.941	0.827	0.776	0.807	1.839	1.762	0.036	0.062	-0.091
0.184	24.094	-0.076	-0.107	-0.350	-0.194	0.978	0.815	0.809	0.849	1.824	1.758	0.033	0.063	-0.092
0.184	24.106	-0.072	-0.109	-0.351	-0.204	0.954	0.814	0.766	0.895	1.832	1.760	0.029	0.064	-0.093
0.185	24.106	-0.069	-0.106	-0.351	-0.216	0.965	0.837	0.710	0.920	1.824	1.756	0.024	0.066	-0.097
0.185	24.109	-0.067	-0.107	-0.350	-0.224	0.968	0.844	0.687	0.893	1.822	1.754	0.018	0.066	-0.100
0.185	24.094	-0.064	-0.107	-0.348	-0.234	0.977	0.829	0.682	0.800	1.826	1.757	0.014	0.068	-0.099
0.185	24.088	-0.061	-0.107	-0.346	-0.237	0.990	0.799	0.684	0.702	1.822	1.762	0.008	0.069	-0.101
0.185	24.112	-0.059	-0.108	-0.343	-0.240	1.014	0.768	0.730	0.672	1.820	1.764	0.000	0.070	-0.103
0.186	24.094	-0.057	-0.108	-0.339	-0.241	1.021	0.735	0.737	0.663	1.822	1.763	-0.006	0.070	-0.105
0.186	24.124	-0.053	-0.110	-0.334	-0.238	1.030	0.705	0.723	0.692	1.814	1.765	-0.014	0.071	-0.107
0.186	24.100	-0.050	-0.110	-0.330	-0.234	1.017	0.726	0.698	0.740	1.813	1.759	-0.019	0.073	-0.108
0.186	24.078	-0.047	-0.111	-0.324	-0.222	0.999	0.734	0.652	0.729	1.819	1.762	-0.025	0.071	-0.110
0.186	24.112	-0.046	-0.112	-0.317	-0.211	0.974	0.725	0.606	0.657	1.816	1.761	-0.031	0.071	-0.112
0.187	24.106	-0.041	-0.112	-0.310	-0.202	0.971	0.710	0.592	0.591	1.817	1.759	-0.037	0.072	-0.113
0.187	24.115	-0.038	-0.112	-0.299	-0.185	0.977	0.682	0.592	0.501	1.824	1.757	-0.042	0.071	-0.116
0.187	24.100	-0.038	-0.113	-0.289	-0.173	0.967	0.655	0.618	0.470	1.825	1.762	-0.047	0.070	-0.120
0.187	24.118	-0.036	-0.111	-0.276	-0.162	0.982	0.638	0.659	0.511	1.820	1.766	-0.052	0.067	-0.122
0.187	24.115	-0.037	-0.112	-0.258	-0.148	1.008	0.606	0.687	0.544	1.816	1.760	-0.056	0.066	-0.127
0.188	24.124	-0.035	-0.112	-0.242	-0.134	1.025	0.608	0.706	0.614	1.821	1.766	-0.056	0.062	-0.130
0.188	24.133	-0.034	-0.115	-0.227	-0.124	1.019	0.609	0.729	0.659	1.824	1.759	-0.060	0.060	-0.134
0.188	24.136	-0.031	-0.114	-0.210	-0.115	0.989	0.614	0.793	0.593	1.817	1.754	-0.060	0.054	-0.138
0.188	24.130	-0.028	-0.114	-0.188	-0.109	0.974	0.618	0.851	0.556	1.821	1.756	-0.062	0.051	-0.142
0.188	24.118	-0.023	-0.113	-0.168	-0.103	0.944	0.587	0.880	0.522	1.816	1.757	-0.062	0.047	-0.146
0.189	24.142	-0.022	-0.114	-0.149	-0.102	0.921	0.582	0.924	0.510	1.813	1.754	-0.063	0.041	-0.150
0.189	24.127	-0.021	-0.113	-0.130	-0.101	0.916	0.555	0.940	0.553	1.817	1.755	-0.064	0.036	-0.152
0.189	24.130	-0.021	-0.111	-0.113	-0.102	0.937	0.549	0.944	0.574	1.817	1.758	-0.062	0.033	-0.155
0.189	24.149	-0.020	-0.109	-0.091	-0.106	0.935	0.555	0.910	0.565	1.814	1.755	-0.061	0.027	-0.155
0.189	24.146	-0.022	-0.109	-0.074	-0.110	0.965	0.537	0.878	0.523	1.825	1.758	-0.058	0.022	-0.155
0.190	24.161	-0.024	-0.104	-0.059	-0.115	0.945	0.531	0.850	0.431	1.818	1.759	-0.054	0.021	-0.154
0.190	24.142	-0.023	-0.101	-0.042	-0.121	0.917	0.529	0.899	0.336	1.812	1.760	-0.049	0.016	-0.152
0.190	24.176	-0.021	-0.097	-0.029	-0.129	0.866	0.526	0.941	0.290	1.806	1.753	-0.043	0.014	-0.150
0.190	24.152	-0.018	-0.090	-0.018	-0.137	0.837	0.532	0.977	0.343	1.818	1.753	-0.038	0.014	-0.147
0.190	24.164	-0.016	-0.089	-0.007	-0.144	0.837	0.529	1.003	0.434	1.809	1.756	-0.033	0.015	-0.142
0.191	24.158	-0.016	-0.087	0.002	-0.151	0.852	0.544	1.027	0.558	1.811	1.753	-0.026	0.017	-0.134
0.191	24.161	-0.016	-0.080	0.011	-0.158	0.871	0.572	1.007	0.595	1.814	1.756	-0.016	0.018	-0.129
0.191	24.185	-0.015	-0.078	0.014	-0.163	0.896	0.586	1.053	0.570	1.811	1.756	-0.012	0.023	-0.120
0.191	24.167	-0.019	-0.073	0.019	-0.165	0.876	0.605	1.120	0.474	1.811	1.756	-0.005	0.030	-0.114
0.191	24.194	-0.019	-0.066	0.019	-0.170	0.839	0.594	1.188	0.353	1.814	1.755	0.007	0.034	-0.107
0.192	24.170	-0.019	-0.062	0.020	-0.168	0.807	0.602	1.234	0.326	1.808	1.757	0.012	0.043	-0.099
0.192	24.161	-0.023	-0.057	0.021	-0.166	0.732	0.586	1.237	0.364	1.813	1.760	0.020	0.049	-0.095
0.192	24.164	-0.018	-0.055	0.022	-0.166	0.779	0.563	1.207	0.461	1.819	1.750	0.026	0.056	-0.088
0.192	24.155	-0.022	-0.052	0.024	-0.162	0.784	0.587	1.178	0.575	1.807	1.749	0.034	0.064	-0.084
0.192	24.170	-0.017	-0.050	0.024	-0.157	0.840	0.581	1.150	0.632	1.814	1.751	0.041	0.072	-0.080
0.193	24.152	-0.014	-0.045	0.023	-0.150	0.845	0.603	1.198	0.596	1.810	1.752	0.047	0.081	-0.079
0.193	24.158	-0.015	-0.044	0.025	-0.146	0.851	0.625	1.258	0.554	1.815	1.754	0.052	0.088	-0.078
0.193	24.167	-0.013	-0.041	0.027	-0.137	0.834	0.633	1.296	0.492	1.806	1.749	0.056	0.094	-0.078
0.193	24.155	-0.014	-0.040	0.028	-0.126	0.822	0.635	1.322	0.422	1.804	1.752	0.059	0.099	-0.082
0.193	24.167	-0.016	-0.036	0.029	-0.115	0.811	0.611	1.276	0.422	1.801	1.752	0.062	0.103	-0.086
0.194	24.136	-0.019	-0.034	0.031	-0.106	0.815	0.592	1.200	0.427	1.807	1.751	0.066	0.106	-0.089
0.194	24.152	-0.018	-0.029	0.033	-0.094	0.872	0.581	1.135	0.439	1.814	1.753	0.064	0.107	-0.094
0.194	24.139	-0.018	-0.027	0.036	-0.083	0.896	0.590	1.071	0.456	1.811	1.753	0.064	0.108	-0.103
0.194	24.136	-0.016	-0.023	0.035	-0.072	0.929	0.607	1.065	0.437	1.809	1.754	0.064	0.107	-0.112
0.194	24.158	-0.016	-0.020	0.036	-0.063	0.934	0.627	1.065	0.429	1.809	1.751	0.063	0.103	-0.122
0.195	24.133	-0.013	-0.016	0.040	-0.058	0.913	0.609	1.066	0.428	1.802	1.751	0.061	0.099	-0.133
0.195	24.112	-0.012	-0.013	0.044	-0.050	0.901	0.605	1.083	0.447	1.808	1.756	0.058	0.094	-0.145
0.195	24.106	-0.012	-0.012	0.044	-0.045	0.914	0.566	1.086	0.506	1.804	1.754	0.055	0.088	-0.155
0.195	24.118	-0.013	-0.008	0.045	-0.043	0.962	0.551	1.105	0.538	1.805	1.749	0.052	0.079	-0.168
0.195	24.109	-0.016	-0.005	0.044	-0.040	0.995	0.535	1.117	0.573	1.805	1.755	0.049	0.072	-0.183
0.196	24.103	-0.019	-0.003	0.043	-0.044	1.051	0.534	1.108	0.607	1.803	1.751	0.044	0.065	-0.194
0.196	24.142	-0.021	0.001	0.040	-0.047	1.078	0.528	1.134	0.602	1.804	1.757	0.041	0.056	-0.205
0.196	24.094	-0.020	0.003	0.038	-0.050	1.115	0.534	1.081	0.608	1.804	1.748	0.036	0.047	-0.216
0.196	24.097	-0.025	0.007	0.035	-0.054	1.113	0.523	1.065	0.609	1.798	1.750	0.035	0.040	-0.226
0.196	24.097	-0.025	0.010	0.030	-0.058	1.105	0.509	1.026	0.618	1.803	1.749	0.031	0.033	-0.232
0.197	24.127	-0.027	0.013	0.024	-0.065	1.096	0.478	0.998	0.610	1.799	1.749	0.029	0.025	-0.239
0.197	24.094	-0.027	0.017	0.017	-0.070	1.116	0.454	0.993	0.631	1.809	1.752	0.026	0.018	-0.243
0.197	24.066	-0.030	0.019	0.013	-0.075	1.140	0.438	0.947	0.602	1.806	1.744	0.026	0.015	-0.247
0.197	24.094	-0.032	0.021	0.007	-0.081	1.169	0.434	0.930	0.629	1.807	1.749	0.024	0.013	-0.249
0.197	24.072	-0.035	0.024	-0.002	-0.088	1.198	0.433	0.933	0.662	1.796	1.749	0.024	0.009	-0.248
0.198	24.066	-0.038	0.026	-0.009	-0.091	1.208	0.420	0.920	0.674	1.795	1.746	0.026	0.008	-0.245
0.198	24.060	-0.040	0.029	-0.019	-0.094	1.201	0.413	0.937	0.693	1.800	1.750	0.025	0.007	-0.240
0.198	24.075	-0.043	0.030	-0.031	-0.096	1.198	0.388	0.945	0.698	1.802	1.750	0.029	0.010	-0.235
0.198	24.066	-0.046	0.033	-0.036	-0.096	1.200	0.385	0.958	0.672	1.797	1.747	0.033	0.015	-0.227
0.198	24.048	-0.048	0.035	-0.045	-0.091	1.197	0.381	0.968	0.642	1.799	1.740	0.035	0.017	-0.219
0.199	24.039	-0.049	0.036	-0.053	-0.089	1.215	0.373	0.998	0.646	1.796	1.739	0.038	0.024	-0.208
0.199	24.042	-0.050	0.038	-0.061	-0.085	1.229	0.365	1.003	0.652	1.797	1.746	0.045	0.030	-0.201
0.199	24.075	-0.050	0.037	-0.067	-0.078	1.248	0.360	1.027	0.664	1.799	1.746	0.052	0.036	-0.191
0.199	24.069	-0.051	0.037	-0.074	-0.072	1.244	0.375	1.023	0.687	1.795	1.741	0.058	0.043	-0.181
0.199	24.063	-0.050	0.037	-0.078	-0.066	1.238	0.407	1.039	0.710	1.800	1.750	0.067	0.050	-0.171
0.200	24.039	-0.049	0.034	-0.082	-0.061	1.224	0.427	1.083	0.687	1.795	1.751	0.069	0.059	-0.161
0.200	24.045	-0.048	0.029	-0.084	-0.056	1.236	0.423	1.087	0.652	1.793	1.750	0.076	0.067	-0.153
0.200	24.042	-0.047	0.025	-0.087	-0.055	1.234	0.427	1.076	0.638	1.794	1.741	0.083	0.076	-0.145
0.200	24.039	-0.046	0.023	-0.087	-0.055	1.227	0.433	1.034	0.638	1.798	1.745	0.087	0.081	-0.137
0.200	24.023	-0.044	0.021	-0.089	-0.055	1.237	0.422	1.014	0.655	1.800	1.744	0.094	0.088	-0.131
0.201	24.023	-0.046	0.016	-0.090	-0.056	1.237	0.449	0.990	0.677	1.800	1.740	0.097	0.093	-0.124
0.201	24.039	-0.046	0.011	-0.089	-0.060	1.236	0.452	1.011	0.689	1.789	1.747	0.101	0.096	-0.123
0.201	24.033	-0.042	0.007	-0.090	-0.065	1.217	0.462	1.041	0.688	1.801	1.751	0.105	0.098	-0.120
0.201	24.020	-0.040	0.003	-0.094	-0.070	1.215	0.453	1.041	0.713	1.794	1.746	0.102	0.100	-0.119
0.201	24.036	-0.039	0.001	-0.096	-0.076	1.172	0.464	1.081	0.757	1.791	1.734	0.108	0.102	-0.121
0.202	24.023	-0.031	0.001	-0.099	-0.084	1.186	0.453	1.078	0.804	1.807	1.738	0.109	0.098	-0.120
0.202	24.014	-0.029	-0.003	-0.101	-0.093	1.184	0.435	1.093	0.872	1.800	1.737	0.108	0.100	-0.123
0.202	24.026	-0.025	-0.004	-0.103	-0.105	1.166	0.425	1.094	0.901	1.792	1.738	0.107	0.096	-0.129
0.202	24.017	-0.020	-0.006	-0.107	-0.117	1.190	0.417	1.090	0.924	1.802	1.737	0.105	0.094	-0.132
0.202	24.026	-0.017	-0.007	-0.112	-0.129	1.187	0.431	1.112	0.932	1.804	1.737	0.103	0.089	-0.138
0.203	24.033	-0.013	-0.008	-0.119	-0.141	1.193	0.453	1.135	0.945	1.788	1.737	0.102	0.087	-0.146
0.203	24.023	-0.011	-0.005	-0.125	-0.152	1.180	0.469	1.159	0.956	1.796	1.734	0.098	0.081	-0.151
0.203	24.060	-0.010	-0.004	-0.134	-0.161	1.160	0.462	1.142	0.995	1.794	1.743	0.094	0.077	-0.158
0.203	24.023	-0.010	-0.003	-0.144	-0.168	1.138	0.441	1.077	0.990	1.790	1.740	0.091	0.073	-0.165
0.203	24.033	-0.007	-0.002	-0.152	-0.174	1.129	0.437	1.039	0.963	1.796	1.744	0.087	0.069	-0.173
0.204	24.017	-0.004	0.002	-0.161	-0.180	1.134	0.441	1.032	0.946	1.794	1.739	0.083	0.067	-0.180
0.204	24.033	-0.002	0.001	-0.169	-0.179	1.142	0.439	1.048	0.937	1.796	1.740	0.079	0.063	-0.185
0.204	24.036	0.004	0.003	-0.177	-0.174	1.144	0.485	1.044	0.973	1.799	1.742	0.077	0.061	-0.196
0.204	24.051	0.009	0.003	-0.184	-0.173	1.138	0.530	1.021	0.992	1.791	1.742	0.073	0.062	-0.202
0.204	24.042	0.014	0.005	-0.191	-0.169	1.115	0.550	0.958	0.998	1.784	1.743	0.070	0.059	-0.209
0.205	24.045	0.017	0.003	-0.196	-0.161	1.107	0.540	0.886	1.022	1.792	1.740	0.066	0.060	-0.214
0.205	24.060	0.019	0.002	-0.199	-0.149	1.063	0.518	0.793	1.045	1.796	1.736	0.063	0.060	-0.220
0.205	24.054	0.021	0.000	-0.201	-0.134	1.052	0.481	0.738	1.007	1.794	1.740	0.059	0.062	-0.225
0.205	24.060	0.020	-0.004	-0.206	-0.118	1.046	0.454	0.726	1.027	1.796	1.735	0.056	0.061	-0.228
0.205	24.063	0.019	-0.006	-0.208	-0.099	1.053	0.460	0.727	1.025	1.787	1.734	0.052	0.063	-0.230
0.206	24.066	0.021	-0.010	-0.209	-0.077	1.057	0.484	0.748	1.028	1.791	1.733	0.049	0.063	-0.231
0.206	24.057	0.021	-0.013	-0.209	-0.056	1.039	0.516	0.753	1.075	1.799	1.735	0.045	0.065	-0.232
0.206	24.075	0.025	-0.016	-0.207	-0.036	1.039	0.533	0.750	1.131	1.799	1.729	0.040	0.064	-0.230
0.206	24.060	0.026	-0.018	-0.204	-0.014	1.018	0.537	0.719	1.225	1.786	1.731	0.036	0.065	-0.229
0.206	24.048	0.031	-0.024	-0.202	0.004	1.025	0.532	0.676	1.307	1.793	1.737	0.030	0.064	-0.225
0.207	24.060	0.034	-0.029	-0.195	0.021	1.029	0.488	0.639	1.354	1.791	1.741	0.026	0.064	-0.221
0.207	24.072	0.032	-0.034	-0.193	0.036	1.014	0.461	0.608	1.349	1.798	1.732	0.021	0.065	-0.216
0.207	24.081	0.033	-0.036	-0.190	0.048	1.009	0.461	0.635	1.320	1.803	1.731	0.016	0.064	-0.210
0.207	24.081	0.033	-0.042	-0.182	0.056	0.978	0.482	0.584	1.289	1.799	1.734	0.011	0.062	-0.202
0.207	24.097	0.032	-0.046	-0.177	0.062	0.958	0.489	0.560	1.334	1.793	1.738	0.005	0.061	-0.194
0.208	24.075	0.030	-0.050	-0.169	0.066	0.942	0.506	0.470	1.401	1.798	1.732	-0.000	0.059	-0.185
0.208	24.088	0.031	-0.052	-0.164	0.066	0.955	0.495	0.388	1.492	1.799	1.735	-0.007	0.057	-0.176
0.208	24.072	0.033	-0.057	-0.156	0.062	0.969	0.502	0.344	1.523	1.796	1.731	-0.011	0.056	-0.169
0.208	24.100	0.035	-0.057	-0.149	0.056	1.011	0.473	0.331	1.515	1.786	1.723	-0.015	0.055	-0.161
0.208	24.097	0.033	-0.057	-0.144	0.048	1.034	0.487	0.360	1.504	1.799	1.731	-0.021	0.054	-0.153
0.209	24.084	0.033	-0.060	-0.136	0.037	1.031	0.497	0.411	1.482	1.791	1.736	-0.026	0.053	-0.146
0.209	24.094	0.034	-0.062	-0.131	0.026	1.015	0.498	0.410	1.490	1.797	1.738	-0.031	0.053	-0.139
0.209	24.091	0.032	-0.064	-0.126	0.012	0.996	0.508	0.359	1.537	1.796	1.732	-0.036	0.052	-0.131
0.209	24.097	0.033	-0.066	-0.122	-0.000	0.970	0.496	0.271	1.568	1.806	1.736	-0.039	0.052	-0.127
0.209	24.081	0.032	-0.070	-0.117	-0.015	0.963	0.453	0.199	1.639	1.799	1.723	-0.042	0.055	-0.121
0.210	24.094	0.030	-0.070	-0.114	-0.027	0.989	0.417	0.177	1.671	1.808	1.726	-0.044	0.055	-0.118
0.210	24.103	0.031	-0.073	-0.111	-0.039	0.992	0.379	0.178	1.637	1.803	1.731	-0.045	0.054	-0.115
0.210	24.088	0.032	-0.074	-0.109	-0.050	1.040	0.361	0.207	1.599	1.803	1.733	-0.046	0.054	-0.114
0.210	24.094	0.030	-0.076	-0.107	-0.063	1.067	0.360	0.228	1.600	1.800	1.729	-0.046	0.057	-0.114
0.210	24.100	0.030	-0.076	-0.104	-0.073	1.041	0.356	0.227	1.617	1.794	1.723	-0.045	0.059	-0.115
0.211	24.097	0.029	-0.076	-0.103	-0.081	1.006	0.407	0.217	1.678	1.793	1.726	-0.044	0.060	-0.118
0.211	24.094	0.030	-0.078	-0.102	-0.089	0.953	0.404	0.221	1.740	1.799	1.723	-0.044	0.064	-0.118
0.211	24.106	0.027	-0.079	-0.105	-0.097	0.906	0.362	0.269	1.753	1.800	1.729	-0.040	0.064	-0.122
0.211	24.130	0.027	-0.078	-0.107	-0.105	0.896	0.290	0.311	1.711	1.808	1.736	-0.038	0.066	-0.125
0.211	24.100	0.024	-0.080	-0.109	-0.112	0.877	0.257	0.336	1.695	1.799	1.733	-0.038	0.068	-0.128
0.212	24.106	0.022	-0.078	-0.114	-0.115	0.882	0.252	0.347	1.670	1.796	1.733	-0.034	0.070	-0.133
0.212	24.109	0.021	-0.078	-0.119	-0.120	0.904	0.243	0.313	1.680	1.801	1.720	-0.033	0.069	-0.135
0.212	24.115	0.015	-0.079	-0.125	-0.125	0.894	0.262	0.226	1.725	1.799	1.730	-0.030	0.071	-0.141
0.212	24.127	0.019	-0.078	-0.132	-0.128	0.898	0.306	0.141	1.735	1.806	1.729	-0.027	0.073	-0.142
0.212	24.106	0.015	-0.077	-0.139	-0.127	0.850	0.319	0.095	1.723	1.797	1.727	-0.024	0.072	-0.144
0.213	24.121	0.016	-0.078	-0.149	-0.123	0.840	0.307	0.106	1.700	1.804	1.725	-0.022	0.072	-0.148
0.213	24.121	0.010	-0.077	-0.158	-0.122	0.834	0.281	0.146	1.706	1.796	1.733	-0.020	0.073	-0.148
0.213	24.127	0.008	-0.080	-0.167	-0.119	0.854	0.266	0.186	1.686	1.795	1.733	-0.018	0.071	-0.151
0.213	24.106	0.005	-0.081	-0.178	-0.114	0.852	0.258	0.177	1.745	1.798	1.730	-0.017	0.073	-0.149
0.213	24.097	0.001	-0.081	-0.190	-0.107	0.865	0.276	0.112	1.799	1.806	1.731	-0.014	0.074	-0.148
0.214	24.124	-0.001	-0.081	-0.199	-0.097	0.862	0.316	-0.008	1.855	1.792	1.726	-0.014	0.073	-0.146
0.214	24.121	-0.003	-0.082	-0.210	-0.089	0.846	0.349	-0.065	1.917	1.794	1.721	-0.012	0.074	-0.143
0.214	24.112	-0.005	-0.083	-0.225	-0.080	0.835	0.385	-0.095	1.956	1.802	1.728	-0.009	0.073	-0.139
0.214	24.100	-0.007	-0.081	-0.232	-0.066	0.834	0.388	-0.032	1.913	1.795	1.731	-0.010	0.074	-0.134
0.214	24.112	-0.010	-0.081	-0.239	-0.053	0.837	0.395	0.051	1.937	1.803	1.724	-0.010	0.075	-0.128
0.215	24.115	-0.013	-0.082	-0.249	-0.039	0.841	0.405	0.101	1.948	1.796	1.723	-0.009	0.074	-0.120
0.215	24.109	-0.017	-0.084	-0.260	-0.024	0.861	0.411	0.081	2.005	1.794	1.724	-0.009	0.077	-0.111
0.215	24.112	-0.023	-0.084	-0.266	-0.007	0.834	0.433	-0.004	2.068	1.793	1.723	-0.008	0.078	-0.106
0.215	24.118	-0.027	-0.086	-0.269	0.012	0.828	0.480	-0.102	2.116	1.799	1.723	-0.007	0.077	-0.097
0.215	24.118	-0.032	-0.088	-0.274	0.026	0.790	0.518	-0.192	2.156	1.800	1.726	-0.007	0.078	-0.088
0.216	24.106	-0.036	-0.091	-0.276	0.042	0.780	0.573	-0.211	2.138	1.793	1.730	-0.006	0.079	-0.081
0.216	24.109	-0.039	-0.094	-0.277	0.057	0.744	0.579	-0.180	2.099	1.792	1.728	-0.006	0.080	-0.074
0.216	24.118	-0.042	-0.094	-0.277	0.070	0.754	0.565	-0.153	2.069	1.792	1.727	-0.005	0.080	-0.067
0.216	24.127	-0.045	-0.094	-0.279	0.083	0.772	0.582	-0.134	2.084	1.791	1.728	-0.006	0.082	-0.060
0.216	24.136	-0.049	-0.094	-0.281	0.096	0.777	0.616	-0.177	2.123	1.800	1.731	-0.004	0.082	-0.054
0.217	24.130	-0.053	-0.092	-0.281	0.106	0.799	0.609	-0.245	2.169	1.795	1.726	-0.007	0.083	-0.048
0.217	24.133	-0.059	-0.093	-0.282	0.117	0.790	0.672	-0.350	2.193	1.794	1.723	-0.005	0.085	-0.044
0.217	24.142	-0.059	-0.093	-0.284	0.124	0.781	0.683	-0.367	2.243	1.797	1.725	-0.005	0.083	-0.038
0.217	24.142	-0.061	-0.092	-0.286	0.128	0.768	0.692	-0.329	2.277	1.796	1.730	-0.006	0.081	-0.033
0.217	24.164	-0.063	-0.093	-0.287	0.134	0.749	0.719	-0.280	2.293	1.795	1.728	-0.007	0.083	-0.033
0.218	24.130	-0.062	-0.092	-0.290	0.137	0.720	0.731	-0.237	2.327	1.793	1.728	-0.008	0.082	-0.031
0.218	24.161	-0.065	-0.095	-0.295	0.137	0.714	0.711	-0.228	2.396	1.798	1.722	-0.009	0.081	-0.029
0.218	24.142	-0.067	-0.095	-0.297	0.134	0.682	0.737	-0.291	2.428	1.804	1.720	-0.012	0.080	-0.030
0.218	24.133	-0.068	-0.096	-0.300	0.132	0.667	0.765	-0.359	2.440	1.794	1.725	-0.014	0.080	-0.028
0.218	24.161	-0.069	-0.098	-0.304	0.131	0.653	0.799	-0.428	2.422	1.791	1.725	-0.016	0.081	-0.028
0.219	24.136	-0.069	-0.098	-0.306	0.125	0.650	0.824	-0.428	2.393	1.790	1.722	-0.019	0.076	-0.028
0.219	24.161	-0.067	-0.099	-0.305	0.121	0.653	0.828	-0.379	2.349	1.790	1.722	-0.024	0.074	-0.031
0.219	24.149	-0.064	-0.101	-0.305	0.114	0.672	0.813	-0.301	2.337	1.792	1.725	-0.028	0.074	-0.032
0.219	24.152	-0.061	-0.101	-0.305	0.107	0.657	0.773	-0.267	2.383	1.798	1.723	-0.032	0.070	-0.033
0.219	24.146	-0.058	-0.101	-0.304	0.100	0.630	0.755	-0.315	2.457	1.791	1.720	-0.037	0.069	-0.036
0.220	24.170	-0.053	-0.099	-0.301	0.093	0.607	0.766	-0.407	2.501	1.794	1.723	-0.041	0.068	-0.039
0.220	24.158	-0.051	-0.100	-0.296	0.086	0.596	0.803	-0.464	2.542	1.789	1.721	-0.046	0.066	-0.042
0.220	24.149	-0.048	-0.101	-0.291	0.080	0.601	0.859	-0.462	2.517	1.796	1.721	-0.053	0.065	-0.045
0.220	24.152	-0.045	-0.100	-0.283	0.071	0.607	0.907	-0.343	2.463	1.793	1.723	-0.059	0.063	-0.050
0.220	24.149	-0.041	-0.099	-0.274	0.062	0.608	0.914	-0.195	2.417	1.801	1.724	-0.064	0.064	-0.053
0.221	24.136	-0.041	-0.101	-0.265	0.058	0.591	0.892	-0.148	2.420	1.791	1.724	-0.070	0.061	-0.057
0.221	24.155	-0.036	-0.099	-0.254	0.050	0.603	0.860	-0.181	2.477	1.791	1.723	-0.075	0.063	-0.060
0.221	24.139	-0.032	-0.101	-0.242	0.047	0.628	0.843	-0.314	2.516	1.795	1.719	-0.081	0.062	-0.057
0.221	24.142	-0.029	-0.101	-0.230	0.043	0.667	0.837	-0.444	2.572	1.793	1.726	-0.084	0.065	-0.065
0.221	24.124	-0.026	-0.102	-0.220	0.037	0.726	0.873	-0.534	2.546	1.796	1.728	-0.089	0.067	-0.066
0.222	24.155	-0.024	-0.103	-0.206	0.036	0.761	0.890	-0.513	2.499	1.785	1.729	-0.095	0.067	-0.069
0.222	24.152	-0.020	-0.100	-0.198	0.034	0.812	0.921	-0.400	2.405	1.794	1.734	-0.095	0.066	-0.071
0.222	24.124	-0.015	-0.100	-0.189	0.038	0.834	0.919	-0.284	2.337	1.804	1.726	-0.099	0.069	-0.072
0.222	24.152	-0.011	-0.099	-0.180	0.042	0.846	0.901	-0.217	2.311	1.796	1.722	-0.097	0.070	-0.073
0.222	24.118	-0.005	-0.100	-0.174	0.049	0.869	0.877	-0.254	2.384	1.794	1.730	-0.101	0.070	-0.074
0.223	24.155	0.001	-0.099	-0.170	0.057	0.886	0.869	-0.386	2.461	1.799	1.723	-0.101	0.075	-0.074
0.223	24.152	0.007	-0.098	-0.165	0.069	0.892	0.859	-0.498	2.531	1.788	1.729	-0.100	0.077	-0.072
0.223	24.142	0.012	-0.097	-0.160	0.083	0.905	0.883	-0.579	2.533	1.794	1.732	-0.100	0.078	-0.074
0.223	24.152	0.017	-0.098	-0.159	0.099	0.909	0.900	-0.520	2.493	1.791	1.723	-0.099	0.080	-0.072
0.223	24.146	0.019	-0.097	-0.159	0.115	0.911	0.883	-0.428	2.435	1.796	1.722	-0.096	0.080	-0.070
0.224	24.152	0.021	-0.097	-0.159	0.132	0.907	0.857	-0.316	2.353	1.796	1.721	-0.091	0.082	-0.070
0.224	24.146	0.024	-0.096	-0.159	0.148	0.893	0.817	-0.242	2.381	1.797	1.723	-0.090	0.080	-0.067
0.224	24.161	0.024	-0.096	-0.159	0.165	0.888	0.780	-0.275	2.447	1.795	1.729	-0.086	0.080	-0.066
0.224	24.146	0.029	-0.095	-0.157	0.179	0.878	0.754	-0.323	2.545	1.794	1.726	-0.082	0.078	-0.063
0.224	24.139	0.032	-0.094	-0.160	0.195	0.886	0.759	-0.389	2.577	1.801	1.727	-0.077	0.076	-0.062
0.225	24.149	0.035	-0.091	-0.158	0.202	0.870	0.762	-0.431	2.570	1.792	1.727	-0.073	0.074	-0.060
0.225	24.136	0.039	-0.090	-0.160	0.210	0.885	0.765	-0.381	2.498	1.795	1.724	-0.069	0.070	-0.058
0.225	24.149	0.041	-0.093	-0.159	0.215	0.875	0.753	-0.270	2.442	1.795	1.733	-0.063	0.066	-0.057
0.225	24.115	0.042	-0.091	-0.161	0.217	0.851	0.722	-0.217	2.437	1.794	1.728	-0.060	0.063	-0.058
0.225	24.146	0.041	-0.095	-0.161	0.216	0.837	0.725	-0.263	2.493	1.794	1.728	-0.056	0.058	-0.057
0.226	24.136	0.044	-0.096	-0.162	0.213	0.827	0.666	-0.349	2.574	1.797	1.732	-0.052	0.053	-0.057
0.226	24.133	0.048	-0.099	-0.161	0.209	0.831	0.669	-0.453	2.599	1.791	1.725	-0.047	0.047	-0.056
0.226	24.130	0.047	-0.101	-0.162	0.202	0.833	0.687	-0.477	2.589	1.796	1.724	-0.044	0.043	-0.055
0.226	24.124	0.048	-0.102	-0.164	0.195	0.828	0.711	-0.424	2.487	1.797	1.729	-0.040	0.037	-0.056
0.226	24.149	0.051	-0.103	-0.165	0.186	0.822	0.737	-0.316	2.408	1.793	1.730	-0.037	0.033	-0.058
0.227	24.130	0.052	-0.103	-0.167	0.177	0.798	0.736	-0.208	2.383	1.798	1.728	-0.032	0.028	-0.058
0.227	24.142	0.052	-0.103	-0.168	0.168	0.771	0.729	-0.178	2.450	1.790	1.731	-0.027	0.024	-0.059
0.227	24.127	0.052	-0.102	-0.171	0.158	0.771	0.726	-0.206	2.553	1.787	1.725	-0.026	0.023	-0.061
0.227	24.118	0.050	-0.101	-0.173	0.150	0.766	0.717	-0.288	2.590	1.790	1.727	-0.021	0.018	-0.064
0.227	24.124	0.051	-0.100	-0.178	0.142	0.767	0.738	-0.347	2.556	1.795	1.722	-0.019	0.018	-0.066
0.228	24.130	0.050	-0.098	-0.182	0.134	0.775	0.759	-0.374	2.466	1.786	1.721	-0.014	0.016	-0.068
0.228	24.118	0.053	-0.100	-0.185	0.126	0.800	0.785	-0.337	2.356	1.793	1.727	-0.011	0.016	-0.069
0.228	24.112	0.055	-0.098	-0.191	0.120	0.808	0.792	-0.327	2.277	1.794	1.724	-0.008	0.016	-0.071
0.228	24.106	0.057	-0.095	-0.194	0.113	0.802	0.790	-0.289	2.280	1.794	1.732	-0.003	0.017	-0.072
0.228	24.158	0.061	-0.092	-0.199	0.104	0.803	0.771	-0.316	2.356	1.791	1.731	0.001	0.019	-0.077
0.229	24.124	0.063	-0.090	-0.200	0.094	0.769	0.762	-0.340	2.451	1.795	1.731	0.004	0.021	-0.078
0.229	24.106	0.063	-0.088	-0.202	0.089	0.753	0.750	-0.356	2.533	1.796	1.725	0.007	0.024	-0.082
0.229	24.106	0.061	-0.084	-0.206	0.083	0.741	0.761	-0.375	2.548	1.790	1.733	0.009	0.026	-0.085
0.229	24.130	0.060	-0.084	-0.208	0.074	0.755	0.796	-0.368	2.463	1.795	1.733	0.012	0.029	-0.088
0.229	24.115	0.057	-0.082	-0.209	0.067	0.772	0.790	-0.329	2.336	1.799	1.726	0.013	0.031	-0.090
0.230	24.130	0.056	-0.081	-0.210	0.058	0.773	0.795	-0.268	2.225	1.799	1.730	0.012	0.034	-0.093
0.230	24.127	0.053	-0.078	-0.211	0.050	0.778	0.792	-0.197	2.170	1.799	1.732	0.012	0.037	-0.095
0.230	24.130	0.053	-0.076	-0.212	0.049	0.764	0.787	-0.186	2.151	1.793	1.735	0.012	0.037	-0.096
0.230	24.142	0.052	-0.075	-0.213	0.047	0.756	0.788	-0.219	2.190	1.799	1.732	0.010	0.039	-0.100
0.230	24.130	0.055	-0.073	-0.213	0.043	0.760	0.824	-0.289	2.239	1.791	1.735	0.007	0.038	-0.100
0.231	24.133	0.050	-0.073	-0.213	0.043	0.768	0.808	-0.339	2.266	1.795	1.731	0.004	0.037	-0.102
0.231	24.130	0.047	-0.070	-0.214	0.042	0.754	0.807	-0.341	2.233	1.790	1.728	-0.000	0.038	-0.106
0.231	24.136	0.043	-0.065	-0.214	0.039	0.771	0.816	-0.338	2.172	1.790	1.729	-0.006	0.036	-0.109
0.231	24.149	0.038	-0.063	-0.215	0.039	0.772	0.786	-0.290	2.137	1.778	1.732	-0.012	0.035	-0.107
0.231	24.152	0.036	-0.062	-0.212	0.036	0.777	0.779	-0.204	2.086	1.789	1.730	-0.017	0.033	-0.108
0.232	24.139	0.034	-0.060	-0.209	0.031	0.790	0.777	-0.117	2.080	1.788	1.724	-0.026	0.032	-0.107
0.232	24.146	0.031	-0.058	-0.209	0.027	0.778	0.786	-0.097	2.112	1.788	1.733	-0.033	0.030	-0.105
0.232	24.158	0.029	-0.056	-0.202	0.019	0.792	0.826	-0.101	2.111	1.792	1.732	-0.041	0.027	-0.104
0.232	24.152	0.024	-0.055	-0.199	0.012	0.792	0.822	-0.132	2.088	1.791	1.737	-0.047	0.027	-0.100
0.232	24.161	0.018	-0.051	-0.193	0.001	0.810	0.846	-0.154	2.037	1.786	1.735	-0.055	0.024	-0.097
0.233	24.176	0.013	-0.048	-0.187	-0.009	0.828	0.831	-0.155	2.002	1.788	1.739	-0.064	0.026	-0.092
0.233	24.170	0.007	-0.046	-0.181	-0.020	0.845	0.828	-0.124	1.973	1.791	1.740	-0.067	0.021	-0.087
0.233	24.173	-0.000	-0.041	-0.175	-0.030	0.846	0.812	-0.105	1.968	1.791	1.741	-0.073	0.023	-0.080
0.233	24.176	-0.005	-0.038	-0.166	-0.040	0.844	0.796	-0.097	2.014	1.788	1.733	-0.078	0.024	-0.074
0.233	24.179	-0.011	-0.036	-0.158	-0.049	0.832	0.784	-0.125	2.046	1.780	1.737	-0.081	0.024	-0.065
0.234	24.185	-0.014	-0.031	-0.148	-0.057	0.827	0.783	-0.149	2.068	1.792	1.736	-0.081	0.026	-0.060
0.234	24.182	-0.019	-0.027	-0.142	-0.063	0.824	0.820	-0.175	2.017	1.790	1.740	-0.084	0.028	-0.053
0.234	24.176	-0.022	-0.022	-0.131	-0.067	0.833	0.820	-0.187	1.993	1.790	1.742	-0.084	0.034	-0.046
0.234	24.191	-0.029	-0.017	-0.123	-0.069	0.839	0.850	-0.182	1.949	1.787	1.748	-0.082	0.038	-0.039
0.234	24.191	-0.034	-0.013	-0.112	-0.067	0.856	0.862	-0.170	1.929	1.787	1.735	-0.078	0.043	-0.031
0.235	24.191	-0.038	-0.009	-0.101	-0.062	0.846	0.843	-0.158	1.960	1.787	1.735	-0.076	0.048	-0.026
0.235	24.200	-0.042	-0.005	-0.092	-0.055	0.852	0.829	-0.145	1.959	1.790	1.738	-0.071	0.053	-0.020
0.235	24.213	-0.046	0.000	-0.082	-0.044	0.839	0.822	-0.113	1.955	1.791	1.738	-0.066	0.057	-0.015
0.235	24.219	-0.049	0.001	-0.071	-0.032	0.829	0.817	-0.082	1.916	1.789	1.743	-0.059	0.065	-0.012
0.235	24.191	-0.052	0.005	-0.062	-0.017	0.832	0.816	-0.062	1.883	1.782	1.732	-0.052	0.066	-0.009
0.236	24.219	-0.056	0.007	-0.052	0.000	0.814	0.811	-0.076	1.847	1.787	1.743	-0.044	0.070	-0.006
0.236	24.234	-0.057	0.010	-0.044	0.016	0.845	0.816	-0.063	1.888	1.788	1.743	-0.036	0.074	-0.001
0.236	24.228	-0.060	0.012	-0.035	0.031	0.848	0.812	-0.082	1.908	1.791	1.743	-0.030	0.076	-0.000
0.236	24.225	-0.061	0.016	-0.026	0.047	0.829	0.805	-0.086	1.962	1.789	1.741	-0.022	0.078	0.000
0.236	24.228	-0.064	0.017	-0.017	0.060	0.829	0.833	-0.083	1.968	1.785	1.747	-0.015	0.077	0.001
0.237	24.249	-0.066	0.018	-0.006	0.070	0.784	0.857	-0.089	1.953	1.785	1.742	-0.007	0.077	0.000
0.237	24.255	-0.067	0.021	0.006	0.074	0.744	0.870	-0.093	1.919	1.789	1.742	-0.002	0.075	0.000
0.237	24.234	-0.067	0.022	0.017	0.075	0.730	0.876	-0.069	1.895	1.779	1.742	0.001	0.076	-0.003
0.237	24.271	-0.065	0.022	0.031	0.076	0.753	0.898	-0.070	1.879	1.778	1.744	0.009	0.070	-0.005
0.237	24.243	-0.063	0.022	0.046	0.072	0.775	0.905	-0.043	1.870	1.783	1.739	0.013	0.067	-0.008
0.238	24.265	-0.060	0.022	0.059	0.065	0.803	0.929	-0.049	1.893	1.778	1.746	0.017	0.063	-0.010
0.238	24.252	-0.059	0.022	0.075	0.049	0.803	0.910	-0.034	1.895	1.771	1.744	0.020	0.059	-0.016
0.238	24.243	-0.055	0.025	0.091	0.030	0.787	0.889	0.016	1.875	1.779	1.746	0.024	0.055	-0.019
0.238	24.249	-0.055	0.025	0.104	0.013	0.726	0.862	0.040	1.832	1.778	1.746	0.027	0.050	-0.024
0.238	24.249	-0.053	0.030	0.117	-0.011	0.680	0.848	0.096	1.779	1.785	1.754	0.028	0.048	-0.032
0.239	24.252	-0.049	0.031	0.134	-0.035	0.652	0.820	0.112	1.738	1.790	1.748	0.029	0.044	-0.033
0.239	24.243	-0.048	0.034	0.146	-0.058	0.647	0.801	0.130	1.733	1.776	1.746	0.032	0.041	-0.043
0.239	24.249	-0.044	0.038	0.156	-0.080	0.677	0.793	0.146	1.765	1.771	1.756	0.033	0.040	-0.050
0.239	24.246	-0.038	0.043	0.169	-0.105	0.714	0.774	0.156	1.781	1.778	1.746	0.034	0.041	-0.054
0.239	24.240	-0.035	0.048	0.177	-0.126	0.729	0.755	0.181	1.804	1.771	1.748	0.037	0.042	-0.065
0.240	24.231	-0.029	0.052	0.184	-0.145	0.739	0.746	0.214	1.741	1.774	1.748	0.038	0.044	-0.072
0.240	24.219	-0.024	0.057	0.188	-0.160	0.699	0.744	0.233	1.640	1.777	1.756	0.041	0.047	-0.078
0.240	24.237	-0.019	0.061	0.187	-0.172	0.654	0.742	0.258	1.537	1.775	1.759	0.043	0.050	-0.084
0.240	24.213	-0.015	0.067	0.185	-0.180	0.631	0.744	0.258	1.492	1.777	1.760	0.046	0.056	-0.088
0.240	24.216	-0.013	0.072	0.182	-0.186	0.610	0.751	0.256	1.502	1.776	1.752	0.048	0.065	-0.093
0.241	24.207	-0.005	0.078	0.175	-0.189	0.670	0.780	0.265	1.550	1.778	1.757	0.049	0.072	-0.094
0.241	24.213	-0.002	0.083	0.169	-0.188	0.716	0.760	0.258	1.576	1.776	1.756	0.053	0.081	-0.093
0.241	24.207	0.003	0.088	0.158	-0.183	0.752	0.762	0.312	1.528	1.779	1.759	0.056	0.087	-0.096
0.241	24.185	0.007	0.093	0.146	-0.175	0.765	0.762	0.371	1.437	1.775	1.761	0.057	0.096	-0.090
0.241	24.210	0.013	0.095	0.132	-0.165	0.747	0.706	0.397	1.346	1.774	1.765	0.058	0.105	-0.081
0.242	24.194	0.020	0.096	0.118	-0.153	0.715	0.737	0.405	1.293	1.771	1.763	0.062	0.112	-0.078
0.242	24.194	0.026	0.098	0.102	-0.135	0.693	0.723	0.377	1.310	1.781	1.762	0.062	0.120	-0.071
0.242	24.197	0.028	0.102	0.088	-0.119	0.703	0.740	0.391	1.382	1.783	1.761	0.063	0.127	-0.063
0.242	24.185	0.032	0.098	0.072	-0.101	0.715	0.742	0.417	1.457	1.775	1.760	0.061	0.132	-0.053
0.242	24.213	0.036	0.097	0.056	-0.081	0.754	0.736	0.447	1.517	1.773	1.757	0.062	0.136	-0.042
0.243	24.188	0.039	0.095	0.039	-0.060	0.777	0.751	0.487	1.477	1.776	1.764	0.060	0.139	-0.032
0.243	24.213	0.043	0.093	0.024	-0.044	0.760	0.725	0.518	1.415	1.775	1.766	0.059	0.141	-0.022
0.243	24.182	0.050	0.090	0.007	-0.030	0.731	0.700	0.547	1.319	1.775	1.757	0.056	0.143	-0.013
0.243	24.188	0.054	0.088	-0.009	-0.014	0.699	0.693	0.554	1.275	1.779	1.761	0.051	0.143	-0.003
0.243	24.194	0.057	0.087	-0.024	0.004	0.660	0.688	0.512	1.285	1.774	1.766	0.046	0.141	0.004
0.244	24.173	0.060	0.083	-0.042	0.014	0.682	0.703	0.466	1.328	1.772	1.760	0.042	0.139	0.009
0.244	24.188	0.061	0.081	-0.058	0.022	0.734	0.720	0.434	1.384	1.775	1.767	0.036	0.136	0.013
0.244	24.182	0.065	0.079	-0.071	0.027	0.779	0.726	0.398	1.384	1.781	1.762	0.031	0.132	0.017
0.244	24.167	0.064	0.076	-0.088	0.032	0.803	0.740	0.427	1.348	1.771	1.770	0.024	0.126	0.016
0.244	24.179	0.063	0.073	-0.103	0.033	0.791	0.725	0.446	1.261	1.765	1.776	0.019	0.121	0.014
0.245	24.152	0.067	0.075	-0.116	0.030	0.746	0.736	0.495	1.157	1.776	1.774	0.012	0.115	0.009
0.245	24.149	0.070	0.073	-0.127	0.028	0.690	0.726	0.520	1.162	1.772	1.774	0.008	0.111	0.001
0.245	24.124	0.074	0.073	-0.137	0.021	0.681	0.729	0.512	1.231	1.774	1.776	0.002	0.104	-0.007
0.245	24.155	0.079	0.076	-0.144	0.010	0.707	0.738	0.488	1.320	1.771	1.765	-0.002	0.098	-0.020
0.245	24.136	0.079	0.078	-0.149	0.000	0.754	0.751	0.461	1.415	1.772	1.765	-0.006	0.093	-0.033
0.246	24.146	0.080	0.082	-0.152	-0.014	0.811	0.769	0.431	1.429	1.775	1.773	-0.010	0.091	-0.047
0.246	24.149	0.080	0.083	-0.155	-0.029	0.824	0.761	0.399	1.343	1.774	1.774	-0.013	0.085	-0.061
0.246	24.121	0.081	0.086	-0.154	-0.043	0.795	0.766	0.414	1.222	1.765	1.776	-0.015	0.081	-0.080
0.246	24.127	0.079	0.087	-0.153	-0.058	0.749	0.754	0.445	1.086	1.769	1.775	-0.017	0.078	-0.096
0.246	24.121	0.079	0.090	-0.151	-0.076	0.695	0.750	0.485	1.040	1.773	1.776	-0.018	0.074	-0.113
0.247	24.121	0.080	0.091	-0.148	-0.091	0.667	0.716	0.461	1.112	1.780	1.775	-0.018	0.070	-0.129
0.247	24.109	0.082	0.093	-0.146	-0.106	0.667	0.686	0.423	1.219	1.772	1.779	-0.019	0.065	-0.144
0.247	24.133	0.082	0.092	-0.142	-0.120	0.710	0.645	0.392	1.310	1.774	1.775	-0.017	0.064	-0.159
0.247	24.130	0.085	0.092	-0.138	-0.131	0.746	0.611	0.417	1.337	1.772	1.772	-0.016	0.060	-0.169
0.247	24.155	0.084	0.092	-0.134	-0.143	0.755	0.583	0.466	1.325	1.776	1.779	-0.016	0.055	-0.182
0.248	24.112	0.084	0.092	-0.130	-0.153	0.744	0.589	0.513	1.247	1.778	1.777	-0.015	0.051	-0.190
0.248	24.130	0.082	0.093	-0.129	-0.160	0.706	0.569	0.565	1.209	1.766	1.779	-0.013	0.047	-0.198
0.248	24.115	0.082	0.093	-0.128	-0.167	0.676	0.548	0.583	1.215	1.778	1.774	-0.013	0.043	-0.203
0.248	24.109	0.080	0.093	-0.124	-0.173	0.664	0.538	0.569	1.233	1.775	1.777	-0.012	0.035	-0.206
0.248	24.127	0.077	0.090	-0.125	-0.176	0.672	0.518	0.558	1.273	1.768	1.783	-0.011	0.031	-0.208
0.249	24.115	0.074	0.089	-0.121	-0.177	0.701	0.520	0.543	1.254	1.776	1.783	-0.011	0.027	-0.207
0.249	24.121	0.076	0.088	-0.115	-0.178	0.742	0.500	0.566	1.189	1.781	1.783	-0.011	0.018	-0.206
0.249	24.130	0.072	0.087	-0.115	-0.173	0.771	0.490	0.621	1.069	1.780	1.783	-0.011	0.013	-0.201
0.249	24.130	0.074	0.084	-0.112	-0.171	0.776	0.482	0.642	0.949	1.774	1.783	-0.011	0.008	-0.197
0.249	24.139	0.075	0.084	-0.111	-0.165	0.772	0.451	0.688	0.892	1.783	1.787	-0.011	0.003	-0.190
0.250	24.139	0.072	0.080	-0.107	-0.162	0.762	0.448	0.686	0.894	1.782	1.782	-0.011	-0.002	-0.182
0.250	24.155	0.072	0.078	-0.102	-0.156	0.761	0.448	0.693	0.942	1.769	1.780	-0.012	-0.008	-0.174
0.250	24.152	0.066	0.075	-0.099	-0.149	0.777	0.470	0.738	0.966	1.777	1.781	-0.015	-0.013	-0.166
0.250	24.136	0.063	0.074	-0.095	-0.143	0.812	0.489	0.817	0.932	1.773	1.784	-0.016	-0.016	-0.158
