Comment:	20231003 sppedbump
Time	Vehicle Speed	FL Sprung acceleration	FR Sprung acceleration	RL Sprung acceleration	RR Sprung acceleration	FL Unsprung acceleration	FR Unsprung acceleration	RL Unsprung acceleration	RR Unsprung acceleration	Bellow pressure RL	Bellow pressure RR	Acceleration X	Acceleration Y	Acceleration Z
s	km/h	gn	gn	gn	gn	gn	gn	gn	gn	bar	bar	g	g	g
0.000	14.182	0.010	0.004	-0.050	0.097	0.550	0.544	0.337	1.671	1.871	1.802	-0.103	-0.054	-0.044
0.000	14.209	0.006	0.005	-0.055	0.088	0.554	0.543	0.311	1.681	1.874	1.804	-0.105	-0.057	-0.046
0.000	14.230	0.002	0.005	-0.061	0.081	0.555	0.549	0.308	1.666	1.872	1.803	-0.103	-0.060	-0.047
0.001	14.188	0.001	0.005	-0.068	0.074	0.533	0.558	0.348	1.619	1.876	1.802	-0.102	-0.061	-0.048
0.001	14.178	-0.001	0.006	-0.072	0.068	0.530	0.567	0.422	1.595	1.869	1.801	-0.105	-0.064	-0.051
0.001	14.182	-0.002	0.006	-0.076	0.060	0.532	0.575	0.469	1.593	1.873	1.799	-0.103	-0.068	-0.053
0.001	14.191	-0.004	0.006	-0.078	0.052	0.546	0.590	0.493	1.619	1.864	1.806	-0.105	-0.070	-0.054
0.001	14.185	-0.008	0.006	-0.082	0.049	0.542	0.579	0.471	1.662	1.874	1.805	-0.103	-0.072	-0.058
0.002	14.215	-0.012	0.005	-0.083	0.049	0.561	0.571	0.459	1.692	1.881	1.802	-0.104	-0.074	-0.056
0.002	14.178	-0.018	0.003	-0.083	0.039	0.553	0.562	0.425	1.720	1.878	1.802	-0.105	-0.075	-0.058
0.002	14.206	-0.021	0.002	-0.081	0.035	0.547	0.551	0.419	1.704	1.876	1.802	-0.104	-0.077	-0.059
0.002	14.221	-0.025	0.000	-0.081	0.033	0.534	0.566	0.462	1.675	1.876	1.804	-0.105	-0.079	-0.058
0.002	14.206	-0.027	-0.001	-0.080	0.030	0.547	0.574	0.513	1.648	1.877	1.806	-0.103	-0.081	-0.061
0.003	14.209	-0.028	-0.001	-0.078	0.029	0.535	0.579	0.553	1.615	1.879	1.805	-0.103	-0.083	-0.061
0.003	14.221	-0.029	-0.002	-0.075	0.030	0.543	0.580	0.579	1.615	1.884	1.802	-0.105	-0.086	-0.063
0.003	14.212	-0.031	-0.002	-0.072	0.031	0.568	0.572	0.555	1.617	1.877	1.809	-0.105	-0.088	-0.062
0.003	14.240	-0.032	-0.003	-0.069	0.032	0.548	0.592	0.512	1.625	1.880	1.803	-0.105	-0.088	-0.061
0.003	14.236	-0.035	-0.004	-0.066	0.035	0.553	0.574	0.469	1.642	1.872	1.800	-0.106	-0.089	-0.063
0.004	14.224	-0.039	-0.004	-0.063	0.038	0.543	0.571	0.449	1.621	1.874	1.805	-0.105	-0.090	-0.060
0.004	14.246	-0.039	-0.006	-0.061	0.042	0.548	0.560	0.462	1.605	1.878	1.800	-0.105	-0.090	-0.060
0.004	14.243	-0.043	-0.007	-0.057	0.047	0.567	0.557	0.508	1.573	1.876	1.804	-0.107	-0.092	-0.061
0.004	14.240	-0.042	-0.007	-0.052	0.053	0.582	0.543	0.550	1.535	1.874	1.808	-0.106	-0.093	-0.058
0.004	14.252	-0.039	-0.008	-0.049	0.056	0.605	0.541	0.592	1.532	1.875	1.806	-0.109	-0.094	-0.058
0.005	14.230	-0.040	-0.010	-0.047	0.061	0.622	0.533	0.567	1.538	1.885	1.806	-0.107	-0.096	-0.054
0.005	14.258	-0.042	-0.009	-0.047	0.064	0.640	0.519	0.517	1.555	1.877	1.819	-0.103	-0.095	-0.053
0.005	14.249	-0.041	-0.006	-0.044	0.068	0.650	0.521	0.462	1.579	1.881	1.811	-0.109	-0.093	-0.052
0.005	14.261	-0.043	-0.009	-0.046	0.072	0.666	0.526	0.436	1.566	1.883	1.809	-0.111	-0.093	-0.049
0.005	14.249	-0.043	-0.010	-0.048	0.075	0.686	0.517	0.485	1.525	1.888	1.809	-0.111	-0.092	-0.048
0.006	14.279	-0.046	-0.009	-0.048	0.077	0.684	0.496	0.512	1.492	1.893	1.803	-0.115	-0.091	-0.046
0.006	14.267	-0.045	-0.005	-0.050	0.079	0.725	0.529	0.551	1.459	1.891	1.807	-0.113	-0.090	-0.044
0.006	14.273	-0.043	-0.010	-0.053	0.081	0.748	0.521	0.548	1.455	1.895	1.802	-0.115	-0.089	-0.041
0.006	14.294	-0.041	-0.011	-0.055	0.082	0.774	0.517	0.499	1.498	1.890	1.809	-0.115	-0.087	-0.038
0.006	14.291	-0.039	-0.013	-0.058	0.083	0.804	0.531	0.470	1.542	1.885	1.810	-0.118	-0.084	-0.037
0.007	14.273	-0.038	-0.013	-0.063	0.084	0.802	0.520	0.468	1.557	1.886	1.810	-0.117	-0.082	-0.033
0.007	14.279	-0.036	-0.016	-0.068	0.081	0.817	0.516	0.474	1.548	1.888	1.812	-0.117	-0.077	-0.033
0.007	14.313	-0.037	-0.019	-0.071	0.082	0.845	0.529	0.528	1.495	1.888	1.808	-0.120	-0.071	-0.029
0.007	14.294	-0.037	-0.021	-0.073	0.081	0.866	0.523	0.591	1.476	1.876	1.809	-0.118	-0.069	-0.025
0.007	14.276	-0.036	-0.025	-0.079	0.081	0.901	0.531	0.626	1.456	1.884	1.810	-0.124	-0.067	-0.022
0.008	14.288	-0.037	-0.028	-0.084	0.082	0.920	0.550	0.609	1.441	1.881	1.810	-0.124	-0.061	-0.019
0.008	14.304	-0.037	-0.030	-0.086	0.083	0.926	0.544	0.560	1.474	1.887	1.809	-0.124	-0.058	-0.015
0.008	14.297	-0.030	-0.032	-0.086	0.084	0.957	0.537	0.535	1.524	1.893	1.811	-0.125	-0.053	-0.011
0.008	14.291	-0.025	-0.035	-0.089	0.087	0.947	0.542	0.526	1.505	1.886	1.811	-0.123	-0.048	-0.006
0.008	14.291	-0.024	-0.035	-0.089	0.089	0.937	0.549	0.531	1.450	1.885	1.811	-0.126	-0.043	-0.005
0.009	14.297	-0.021	-0.039	-0.088	0.094	0.953	0.546	0.593	1.438	1.886	1.814	-0.126	-0.038	0.005
0.009	14.301	-0.017	-0.039	-0.084	0.099	0.937	0.542	0.631	1.416	1.881	1.813	-0.127	-0.033	0.006
0.009	14.288	-0.015	-0.039	-0.079	0.100	0.936	0.581	0.645	1.406	1.886	1.810	-0.127	-0.028	0.010
0.009	14.297	-0.012	-0.041	-0.073	0.104	0.934	0.579	0.622	1.420	1.885	1.815	-0.128	-0.024	0.017
0.009	14.294	-0.010	-0.044	-0.065	0.111	0.956	0.614	0.595	1.469	1.885	1.813	-0.129	-0.017	0.017
0.010	14.288	-0.007	-0.045	-0.057	0.113	0.949	0.583	0.574	1.481	1.884	1.810	-0.128	-0.017	0.023
0.010	14.294	-0.006	-0.046	-0.047	0.118	0.962	0.596	0.599	1.488	1.878	1.814	-0.129	-0.011	0.028
0.010	14.288	-0.002	-0.046	-0.038	0.123	0.935	0.565	0.633	1.454	1.894	1.816	-0.131	-0.006	0.032
0.010	14.291	0.002	-0.044	-0.026	0.124	0.924	0.573	0.690	1.410	1.889	1.818	-0.130	-0.004	0.037
0.010	14.322	0.005	-0.045	-0.014	0.131	0.905	0.589	0.703	1.402	1.886	1.813	-0.131	0.001	0.040
0.011	14.319	0.009	-0.045	-0.003	0.134	0.878	0.614	0.693	1.392	1.884	1.808	-0.131	0.006	0.046
0.011	14.301	0.010	-0.044	0.007	0.137	0.863	0.635	0.653	1.398	1.878	1.811	-0.131	0.005	0.051
0.011	14.304	0.017	-0.045	0.018	0.140	0.851	0.642	0.609	1.411	1.895	1.811	-0.134	0.009	0.054
0.011	14.310	0.018	-0.045	0.027	0.142	0.871	0.650	0.592	1.386	1.884	1.807	-0.133	0.010	0.058
0.011	14.304	0.021	-0.045	0.036	0.144	0.853	0.670	0.604	1.383	1.888	1.812	-0.132	0.012	0.064
0.012	14.310	0.024	-0.046	0.043	0.148	0.838	0.667	0.629	1.349	1.887	1.813	-0.132	0.016	0.064
0.012	14.310	0.026	-0.047	0.049	0.150	0.832	0.666	0.647	1.302	1.890	1.813	-0.132	0.016	0.069
0.012	14.304	0.029	-0.048	0.056	0.155	0.802	0.680	0.656	1.307	1.895	1.814	-0.131	0.018	0.074
0.012	14.331	0.029	-0.048	0.060	0.159	0.810	0.713	0.646	1.301	1.889	1.820	-0.132	0.018	0.076
0.012	14.328	0.034	-0.047	0.062	0.164	0.811	0.728	0.586	1.332	1.887	1.812	-0.130	0.018	0.080
0.013	14.343	0.037	-0.047	0.065	0.172	0.815	0.716	0.562	1.379	1.890	1.810	-0.133	0.020	0.081
0.013	14.316	0.038	-0.045	0.066	0.175	0.833	0.734	0.549	1.392	1.887	1.817	-0.132	0.020	0.085
0.013	14.325	0.038	-0.045	0.066	0.182	0.827	0.749	0.583	1.374	1.885	1.817	-0.130	0.020	0.088
0.013	14.352	0.043	-0.041	0.064	0.187	0.837	0.716	0.635	1.347	1.887	1.820	-0.132	0.023	0.090
0.013	14.322	0.042	-0.042	0.064	0.191	0.838	0.706	0.666	1.321	1.884	1.824	-0.131	0.022	0.094
0.014	14.319	0.044	-0.042	0.064	0.195	0.827	0.717	0.674	1.310	1.889	1.813	-0.132	0.024	0.097
0.014	14.349	0.044	-0.039	0.061	0.197	0.814	0.742	0.680	1.313	1.898	1.814	-0.134	0.023	0.094
0.014	14.316	0.044	-0.035	0.061	0.201	0.827	0.741	0.653	1.342	1.893	1.818	-0.131	0.024	0.098
0.014	14.331	0.045	-0.035	0.058	0.201	0.827	0.743	0.627	1.371	1.889	1.817	-0.131	0.024	0.099
0.014	14.328	0.045	-0.035	0.054	0.203	0.828	0.735	0.634	1.360	1.894	1.818	-0.129	0.024	0.100
0.015	14.325	0.047	-0.034	0.053	0.200	0.876	0.694	0.637	1.336	1.888	1.824	-0.130	0.024	0.099
0.015	14.343	0.045	-0.031	0.053	0.198	0.878	0.694	0.637	1.280	1.888	1.826	-0.128	0.024	0.099
0.015	14.328	0.045	-0.031	0.052	0.193	0.886	0.670	0.663	1.283	1.885	1.820	-0.130	0.025	0.099
0.015	14.343	0.043	-0.030	0.053	0.188	0.886	0.662	0.664	1.280	1.887	1.819	-0.126	0.029	0.100
0.015	14.352	0.043	-0.027	0.055	0.183	0.893	0.679	0.639	1.302	1.891	1.821	-0.124	0.025	0.096
0.016	14.334	0.042	-0.027	0.054	0.175	0.901	0.681	0.605	1.340	1.888	1.821	-0.126	0.026	0.095
0.016	14.337	0.040	-0.027	0.053	0.167	0.912	0.675	0.603	1.333	1.880	1.817	-0.123	0.026	0.091
0.016	14.331	0.038	-0.025	0.057	0.159	0.932	0.678	0.616	1.309	1.877	1.816	-0.120	0.026	0.088
0.016	14.352	0.034	-0.025	0.060	0.151	0.935	0.662	0.658	1.272	1.885	1.817	-0.121	0.028	0.084
0.016	14.352	0.031	-0.023	0.062	0.143	0.959	0.647	0.681	1.216	1.878	1.816	-0.118	0.027	0.079
0.017	14.334	0.029	-0.023	0.062	0.137	0.956	0.641	0.676	1.209	1.885	1.822	-0.118	0.027	0.077
0.017	14.334	0.027	-0.021	0.064	0.128	0.958	0.637	0.677	1.164	1.884	1.822	-0.115	0.025	0.073
0.017	14.349	0.026	-0.019	0.064	0.125	0.958	0.618	0.637	1.162	1.885	1.820	-0.116	0.025	0.070
0.017	14.334	0.023	-0.017	0.063	0.120	0.970	0.632	0.623	1.211	1.885	1.825	-0.114	0.024	0.061
0.017	14.352	0.020	-0.012	0.061	0.118	0.989	0.631	0.614	1.233	1.884	1.824	-0.113	0.024	0.056
0.018	14.352	0.015	-0.013	0.058	0.118	1.028	0.632	0.631	1.219	1.882	1.823	-0.114	0.024	0.050
0.018	14.346	0.011	-0.010	0.055	0.117	1.040	0.627	0.638	1.183	1.886	1.825	-0.112	0.020	0.045
0.018	14.352	0.008	-0.006	0.051	0.115	1.040	0.617	0.657	1.178	1.887	1.822	-0.108	0.019	0.035
0.018	14.337	0.006	-0.006	0.047	0.117	1.052	0.613	0.692	1.200	1.883	1.824	-0.110	0.012	0.027
0.018	14.352	0.001	-0.004	0.042	0.118	1.013	0.607	0.691	1.211	1.878	1.822	-0.108	0.015	0.021
0.019	14.371	0.000	0.001	0.037	0.115	0.994	0.634	0.715	1.232	1.883	1.829	-0.107	0.012	0.012
0.019	14.359	-0.004	0.002	0.030	0.115	1.007	0.622	0.737	1.245	1.885	1.822	-0.106	0.009	0.008
0.019	14.362	-0.007	0.006	0.022	0.110	0.999	0.627	0.747	1.272	1.883	1.825	-0.105	0.004	-0.004
0.019	14.343	-0.010	0.008	0.015	0.109	1.019	0.615	0.762	1.269	1.888	1.827	-0.105	-0.001	-0.008
0.019	14.340	-0.013	0.010	0.004	0.105	1.011	0.587	0.771	1.256	1.885	1.829	-0.105	-0.006	-0.014
0.020	14.377	-0.017	0.011	-0.006	0.100	1.030	0.583	0.781	1.234	1.890	1.826	-0.104	-0.009	-0.017
0.020	14.362	-0.020	0.011	-0.019	0.095	0.998	0.566	0.809	1.217	1.893	1.829	-0.103	-0.014	-0.027
0.020	14.374	-0.023	0.012	-0.029	0.091	0.990	0.565	0.824	1.210	1.890	1.820	-0.103	-0.020	-0.030
0.020	14.380	-0.024	0.012	-0.039	0.084	0.960	0.565	0.825	1.235	1.897	1.824	-0.103	-0.024	-0.036
0.020	14.368	-0.026	0.012	-0.050	0.077	0.932	0.566	0.810	1.266	1.889	1.821	-0.102	-0.030	-0.040
0.021	14.359	-0.026	0.011	-0.063	0.070	0.918	0.570	0.820	1.276	1.898	1.817	-0.101	-0.037	-0.044
0.021	14.365	-0.033	0.010	-0.072	0.062	0.919	0.567	0.851	1.269	1.894	1.832	-0.101	-0.041	-0.049
0.021	14.377	-0.033	0.010	-0.082	0.054	0.937	0.544	0.910	1.251	1.890	1.828	-0.100	-0.046	-0.050
0.021	14.349	-0.035	0.008	-0.093	0.044	0.906	0.526	0.936	1.224	1.884	1.823	-0.100	-0.051	-0.054
0.021	14.389	-0.040	0.009	-0.103	0.038	0.864	0.523	0.951	1.196	1.889	1.823	-0.098	-0.055	-0.057
0.022	14.365	-0.043	0.010	-0.112	0.028	0.828	0.538	0.943	1.217	1.895	1.827	-0.097	-0.061	-0.060
0.022	14.355	-0.045	0.012	-0.121	0.018	0.803	0.540	0.900	1.233	1.891	1.830	-0.096	-0.066	-0.059
0.022	14.386	-0.046	0.009	-0.129	0.010	0.772	0.522	0.856	1.245	1.894	1.825	-0.095	-0.070	-0.060
0.022	14.365	-0.048	0.007	-0.136	0.002	0.786	0.540	0.823	1.240	1.895	1.829	-0.097	-0.073	-0.060
0.022	14.374	-0.052	0.009	-0.142	-0.008	0.790	0.522	0.833	1.235	1.895	1.827	-0.097	-0.078	-0.062
0.023	14.374	-0.054	0.010	-0.145	-0.015	0.801	0.512	0.843	1.215	1.895	1.831	-0.094	-0.081	-0.062
0.023	14.383	-0.058	0.008	-0.148	-0.023	0.787	0.509	0.882	1.143	1.893	1.826	-0.094	-0.084	-0.063
0.023	14.374	-0.060	0.007	-0.149	-0.032	0.772	0.496	0.901	1.089	1.896	1.831	-0.090	-0.087	-0.063
0.023	14.377	-0.059	0.007	-0.149	-0.038	0.749	0.518	0.895	1.075	1.900	1.834	-0.088	-0.090	-0.064
0.023	14.392	-0.061	0.008	-0.144	-0.042	0.726	0.540	0.858	1.112	1.902	1.820	-0.086	-0.091	-0.062
0.024	14.410	-0.060	0.007	-0.140	-0.048	0.718	0.559	0.844	1.141	1.891	1.829	-0.084	-0.094	-0.061
0.024	14.392	-0.062	0.006	-0.137	-0.050	0.728	0.558	0.817	1.129	1.900	1.827	-0.082	-0.094	-0.060
0.024	14.392	-0.061	0.007	-0.130	-0.049	0.730	0.563	0.797	1.110	1.906	1.835	-0.080	-0.098	-0.058
0.024	14.386	-0.063	0.009	-0.126	-0.048	0.738	0.548	0.792	1.076	1.904	1.831	-0.081	-0.099	-0.056
0.024	14.398	-0.063	0.008	-0.122	-0.046	0.728	0.567	0.802	1.003	1.894	1.834	-0.077	-0.100	-0.053
0.025	14.429	-0.063	0.008	-0.114	-0.042	0.693	0.568	0.797	0.983	1.901	1.830	-0.078	-0.101	-0.051
0.025	14.420	-0.062	0.008	-0.110	-0.038	0.690	0.570	0.788	0.968	1.901	1.832	-0.077	-0.101	-0.049
0.025	14.410	-0.065	0.007	-0.107	-0.034	0.701	0.595	0.771	0.956	1.915	1.831	-0.073	-0.102	-0.048
0.025	14.413	-0.064	0.005	-0.104	-0.027	0.684	0.601	0.716	0.961	1.910	1.839	-0.074	-0.098	-0.044
0.025	14.423	-0.064	0.006	-0.100	-0.021	0.691	0.607	0.690	0.962	1.908	1.830	-0.072	-0.097	-0.042
0.026	14.426	-0.063	0.004	-0.097	-0.016	0.707	0.597	0.714	0.991	1.908	1.830	-0.074	-0.096	-0.039
0.026	14.432	-0.064	0.005	-0.096	-0.009	0.720	0.586	0.717	0.972	1.904	1.827	-0.074	-0.092	-0.035
0.026	14.438	-0.064	0.007	-0.096	-0.002	0.711	0.570	0.720	0.997	1.901	1.836	-0.075	-0.091	-0.030
0.026	14.444	-0.067	0.006	-0.095	0.008	0.719	0.574	0.730	1.023	1.907	1.826	-0.075	-0.087	-0.029
0.026	14.417	-0.068	0.006	-0.096	0.011	0.706	0.567	0.714	1.052	1.904	1.838	-0.074	-0.085	-0.027
0.027	14.432	-0.066	0.009	-0.096	0.018	0.712	0.555	0.686	1.069	1.905	1.835	-0.075	-0.082	-0.021
0.027	14.435	-0.067	0.009	-0.096	0.020	0.723	0.578	0.686	1.118	1.902	1.830	-0.077	-0.076	-0.020
0.027	14.453	-0.065	0.010	-0.095	0.023	0.740	0.572	0.691	1.145	1.907	1.830	-0.078	-0.073	-0.014
0.027	14.444	-0.065	0.008	-0.094	0.025	0.760	0.558	0.714	1.143	1.909	1.833	-0.079	-0.068	-0.010
0.027	14.438	-0.062	0.008	-0.093	0.026	0.787	0.537	0.737	1.153	1.911	1.836	-0.081	-0.063	-0.008
0.028	14.447	-0.062	0.004	-0.091	0.022	0.802	0.545	0.734	1.140	1.912	1.834	-0.081	-0.061	-0.001
0.028	14.438	-0.060	0.002	-0.086	0.021	0.819	0.538	0.730	1.151	1.910	1.835	-0.083	-0.055	0.004
0.028	14.441	-0.065	0.000	-0.084	0.019	0.817	0.528	0.696	1.186	1.909	1.835	-0.087	-0.048	0.008
0.028	14.468	-0.065	-0.001	-0.079	0.015	0.797	0.521	0.672	1.204	1.912	1.837	-0.087	-0.046	0.015
0.028	14.441	-0.064	-0.003	-0.072	0.012	0.819	0.504	0.664	1.225	1.914	1.833	-0.089	-0.040	0.019
0.029	14.441	-0.065	-0.004	-0.065	0.010	0.774	0.481	0.681	1.205	1.910	1.834	-0.090	-0.035	0.023
0.029	14.462	-0.059	-0.004	-0.059	0.006	0.776	0.471	0.726	1.193	1.916	1.835	-0.092	-0.032	0.027
0.029	14.465	-0.060	-0.010	-0.050	0.004	0.796	0.463	0.760	1.160	1.908	1.835	-0.092	-0.027	0.032
0.029	14.478	-0.057	-0.008	-0.041	0.001	0.792	0.435	0.742	1.137	1.911	1.830	-0.094	-0.022	0.038
0.029	14.456	-0.054	-0.013	-0.030	0.000	0.788	0.416	0.716	1.180	1.915	1.832	-0.095	-0.018	0.038
0.030	14.465	-0.052	-0.014	-0.019	-0.000	0.764	0.429	0.662	1.197	1.911	1.831	-0.095	-0.015	0.043
0.030	14.478	-0.052	-0.018	-0.008	0.003	0.777	0.454	0.639	1.186	1.913	1.836	-0.094	-0.010	0.044
0.030	14.462	-0.050	-0.023	0.004	0.004	0.755	0.419	0.646	1.169	1.913	1.832	-0.096	-0.006	0.046
0.030	14.465	-0.049	-0.024	0.019	0.010	0.737	0.393	0.682	1.143	1.913	1.841	-0.092	-0.003	0.052
0.030	14.468	-0.046	-0.027	0.031	0.016	0.722	0.384	0.708	1.130	1.908	1.837	-0.092	0.001	0.052
0.031	14.459	-0.042	-0.029	0.043	0.023	0.714	0.376	0.700	1.112	1.921	1.832	-0.096	0.004	0.054
0.031	14.465	-0.040	-0.029	0.057	0.032	0.703	0.357	0.650	1.135	1.910	1.838	-0.095	0.007	0.054
0.031	14.465	-0.037	-0.027	0.070	0.040	0.684	0.331	0.628	1.127	1.914	1.841	-0.097	0.011	0.055
0.031	14.490	-0.034	-0.024	0.081	0.050	0.679	0.365	0.619	1.099	1.907	1.834	-0.094	0.012	0.056
0.031	14.493	-0.031	-0.024	0.092	0.059	0.674	0.362	0.603	1.098	1.911	1.834	-0.094	0.014	0.055
0.032	14.456	-0.028	-0.020	0.104	0.068	0.662	0.356	0.629	1.068	1.912	1.841	-0.092	0.015	0.055
0.032	14.462	-0.023	-0.019	0.115	0.075	0.652	0.365	0.670	1.041	1.916	1.841	-0.093	0.018	0.058
0.032	14.478	-0.022	-0.017	0.122	0.082	0.631	0.368	0.682	1.029	1.914	1.835	-0.091	0.020	0.055
0.032	14.478	-0.019	-0.016	0.129	0.092	0.618	0.360	0.623	1.034	1.921	1.838	-0.091	0.020	0.055
0.032	14.468	-0.015	-0.013	0.135	0.098	0.635	0.326	0.563	1.025	1.916	1.838	-0.090	0.024	0.056
0.033	14.465	-0.013	-0.012	0.140	0.107	0.621	0.343	0.562	1.034	1.912	1.840	-0.086	0.022	0.056
0.033	14.471	-0.009	-0.008	0.142	0.113	0.622	0.353	0.577	1.046	1.908	1.836	-0.088	0.022	0.055
0.033	14.474	-0.007	-0.007	0.143	0.121	0.605	0.361	0.611	1.029	1.911	1.836	-0.086	0.024	0.057
0.033	14.487	-0.003	-0.005	0.143	0.125	0.596	0.379	0.640	1.033	1.913	1.841	-0.084	0.024	0.056
0.033	14.496	-0.002	-0.005	0.142	0.129	0.583	0.393	0.662	1.079	1.920	1.836	-0.084	0.026	0.055
0.034	14.484	0.000	-0.003	0.141	0.133	0.569	0.395	0.658	1.067	1.913	1.839	-0.081	0.022	0.056
0.034	14.496	0.002	-0.004	0.137	0.134	0.558	0.380	0.623	1.044	1.918	1.847	-0.082	0.024	0.059
0.034	14.496	0.003	-0.004	0.133	0.136	0.566	0.385	0.610	1.091	1.915	1.845	-0.080	0.024	0.057
0.034	14.517	0.007	-0.005	0.126	0.137	0.554	0.379	0.596	1.131	1.924	1.841	-0.080	0.023	0.057
0.034	14.508	0.007	-0.005	0.119	0.141	0.550	0.384	0.601	1.093	1.916	1.839	-0.079	0.024	0.058
0.035	14.529	0.008	-0.006	0.111	0.142	0.556	0.400	0.587	1.095	1.913	1.850	-0.078	0.021	0.059
0.035	14.499	0.012	-0.006	0.102	0.144	0.554	0.408	0.584	1.092	1.907	1.840	-0.077	0.023	0.058
0.035	14.490	0.012	-0.008	0.096	0.151	0.554	0.412	0.555	1.100	1.908	1.836	-0.076	0.024	0.056
0.035	14.508	0.017	-0.008	0.089	0.153	0.547	0.417	0.528	1.100	1.922	1.840	-0.075	0.018	0.057
0.035	14.526	0.018	-0.009	0.078	0.160	0.537	0.415	0.505	1.108	1.915	1.840	-0.077	0.019	0.059
0.036	14.523	0.019	-0.006	0.071	0.164	0.537	0.423	0.462	1.105	1.916	1.839	-0.072	0.016	0.057
0.036	14.517	0.021	-0.006	0.063	0.171	0.550	0.415	0.435	1.096	1.915	1.842	-0.071	0.013	0.058
0.036	14.532	0.019	-0.005	0.057	0.177	0.540	0.441	0.433	1.118	1.918	1.842	-0.071	0.012	0.056
0.036	14.526	0.016	-0.003	0.049	0.184	0.559	0.465	0.427	1.144	1.919	1.839	-0.068	0.008	0.055
0.036	14.529	0.014	-0.004	0.043	0.193	0.577	0.474	0.429	1.145	1.919	1.840	-0.070	0.008	0.056
0.037	14.511	0.013	-0.003	0.038	0.199	0.577	0.475	0.439	1.152	1.923	1.842	-0.069	0.007	0.051
0.037	14.539	0.015	-0.003	0.032	0.208	0.607	0.468	0.425	1.145	1.914	1.841	-0.068	0.007	0.050
0.037	14.529	0.013	-0.001	0.024	0.218	0.656	0.462	0.410	1.149	1.912	1.841	-0.067	0.002	0.048
0.037	14.529	0.015	-0.002	0.019	0.226	0.648	0.445	0.363	1.156	1.918	1.840	-0.067	-0.000	0.046
0.037	14.529	0.010	-0.003	0.012	0.236	0.641	0.466	0.343	1.197	1.914	1.837	-0.068	-0.002	0.047
0.038	14.520	0.006	-0.002	0.008	0.243	0.656	0.506	0.319	1.231	1.916	1.837	-0.068	-0.005	0.040
0.038	14.545	0.003	-0.002	0.004	0.250	0.648	0.512	0.294	1.233	1.927	1.839	-0.067	-0.008	0.038
0.038	14.539	0.001	-0.001	-0.001	0.257	0.652	0.512	0.313	1.225	1.931	1.842	-0.072	-0.010	0.035
0.038	14.523	-0.006	0.000	-0.006	0.261	0.643	0.534	0.331	1.210	1.919	1.840	-0.069	-0.012	0.032
0.038	14.532	-0.007	0.002	-0.008	0.264	0.643	0.544	0.322	1.196	1.924	1.840	-0.067	-0.017	0.030
0.039	14.557	-0.007	0.002	-0.010	0.266	0.648	0.513	0.317	1.228	1.924	1.834	-0.072	-0.018	0.029
0.039	14.526	-0.011	0.003	-0.015	0.263	0.615	0.488	0.327	1.259	1.912	1.836	-0.071	-0.020	0.025
0.039	14.545	-0.009	0.003	-0.017	0.262	0.650	0.495	0.314	1.274	1.922	1.839	-0.075	-0.024	0.025
0.039	14.566	-0.013	0.001	-0.020	0.257	0.631	0.493	0.315	1.311	1.915	1.851	-0.078	-0.024	0.022
0.039	14.551	-0.016	0.002	-0.024	0.252	0.657	0.501	0.299	1.345	1.921	1.848	-0.079	-0.028	0.020
0.040	14.560	-0.020	0.001	-0.029	0.245	0.656	0.494	0.298	1.300	1.922	1.840	-0.082	-0.032	0.022
0.040	14.536	-0.027	0.001	-0.031	0.237	0.663	0.480	0.322	1.265	1.928	1.846	-0.082	-0.034	0.022
0.040	14.536	-0.031	-0.000	-0.036	0.225	0.672	0.465	0.311	1.265	1.926	1.852	-0.085	-0.036	0.022
0.040	14.554	-0.036	-0.001	-0.037	0.216	0.652	0.459	0.299	1.268	1.936	1.841	-0.086	-0.039	0.025
0.040	14.560	-0.040	-0.002	-0.039	0.204	0.647	0.450	0.302	1.288	1.927	1.839	-0.089	-0.040	0.028
0.041	14.566	-0.045	-0.002	-0.039	0.192	0.623	0.453	0.313	1.296	1.925	1.847	-0.091	-0.040	0.026
0.041	14.539	-0.045	-0.000	-0.037	0.180	0.621	0.461	0.294	1.317	1.936	1.844	-0.090	-0.044	0.029
0.041	14.557	-0.049	-0.001	-0.036	0.169	0.598	0.462	0.306	1.307	1.936	1.841	-0.094	-0.044	0.031
0.041	14.563	-0.052	-0.002	-0.035	0.156	0.599	0.453	0.340	1.331	1.924	1.838	-0.094	-0.046	0.033
0.041	14.542	-0.057	-0.001	-0.034	0.147	0.626	0.443	0.373	1.305	1.930	1.844	-0.096	-0.048	0.036
0.042	14.557	-0.062	-0.003	-0.029	0.138	0.629	0.411	0.389	1.292	1.931	1.846	-0.095	-0.045	0.037
0.042	14.548	-0.067	-0.003	-0.027	0.131	0.642	0.390	0.380	1.300	1.916	1.848	-0.094	-0.047	0.039
0.042	14.545	-0.071	-0.007	-0.025	0.126	0.632	0.364	0.344	1.348	1.931	1.847	-0.097	-0.046	0.040
0.042	14.542	-0.074	-0.006	-0.018	0.122	0.626	0.359	0.329	1.326	1.924	1.846	-0.093	-0.045	0.042
0.042	14.529	-0.077	-0.006	-0.012	0.120	0.613	0.346	0.300	1.316	1.927	1.846	-0.095	-0.043	0.043
0.043	14.554	-0.078	-0.007	-0.007	0.117	0.614	0.362	0.272	1.288	1.933	1.849	-0.095	-0.041	0.044
0.043	14.548	-0.080	-0.009	0.003	0.117	0.611	0.371	0.235	1.246	1.927	1.845	-0.092	-0.041	0.047
0.043	14.560	-0.079	-0.008	0.010	0.112	0.627	0.362	0.208	1.241	1.934	1.846	-0.095	-0.038	0.046
0.043	14.545	-0.086	-0.008	0.020	0.115	0.626	0.341	0.180	1.249	1.920	1.846	-0.093	-0.035	0.044
0.043	14.563	-0.087	-0.008	0.028	0.115	0.623	0.302	0.153	1.282	1.941	1.847	-0.093	-0.033	0.047
0.044	14.575	-0.092	-0.010	0.035	0.119	0.643	0.272	0.168	1.270	1.945	1.848	-0.092	-0.030	0.048
0.044	14.551	-0.093	-0.012	0.043	0.117	0.631	0.247	0.197	1.271	1.927	1.856	-0.090	-0.027	0.049
0.044	14.569	-0.094	-0.014	0.052	0.123	0.638	0.263	0.217	1.274	1.936	1.850	-0.091	-0.025	0.051
0.044	14.554	-0.095	-0.016	0.055	0.126	0.607	0.256	0.203	1.274	1.930	1.854	-0.090	-0.022	0.049
0.044	14.557	-0.094	-0.017	0.061	0.129	0.602	0.263	0.196	1.299	1.934	1.848	-0.090	-0.020	0.053
0.045	14.566	-0.094	-0.019	0.065	0.133	0.592	0.239	0.128	1.319	1.943	1.848	-0.091	-0.017	0.054
0.045	14.551	-0.091	-0.020	0.068	0.137	0.602	0.234	0.095	1.370	1.946	1.847	-0.090	-0.015	0.056
0.045	14.572	-0.091	-0.021	0.073	0.140	0.591	0.234	0.062	1.373	1.947	1.845	-0.090	-0.013	0.060
0.045	14.566	-0.090	-0.022	0.073	0.146	0.618	0.213	0.064	1.367	1.939	1.853	-0.090	-0.009	0.061
0.045	14.566	-0.091	-0.022	0.073	0.147	0.610	0.213	0.086	1.338	1.942	1.850	-0.091	-0.008	0.065
0.046	14.566	-0.089	-0.024	0.072	0.149	0.611	0.214	0.108	1.320	1.931	1.849	-0.091	-0.005	0.066
0.046	14.548	-0.086	-0.026	0.070	0.151	0.622	0.235	0.116	1.340	1.939	1.847	-0.093	-0.003	0.069
0.046	14.563	-0.086	-0.028	0.066	0.150	0.631	0.250	0.125	1.363	1.944	1.848	-0.094	-0.001	0.072
0.046	14.566	-0.086	-0.029	0.062	0.150	0.632	0.243	0.097	1.416	1.938	1.855	-0.095	0.002	0.074
0.046	14.563	-0.082	-0.031	0.055	0.149	0.638	0.254	0.063	1.451	1.944	1.845	-0.097	0.004	0.079
0.047	14.551	-0.078	-0.033	0.047	0.147	0.651	0.249	0.061	1.446	1.938	1.848	-0.099	0.003	0.081
0.047	14.572	-0.077	-0.036	0.037	0.148	0.651	0.244	0.093	1.438	1.939	1.848	-0.100	0.004	0.084
0.047	14.551	-0.077	-0.036	0.028	0.147	0.641	0.258	0.133	1.415	1.948	1.850	-0.098	0.005	0.087
0.047	14.532	-0.077	-0.033	0.018	0.145	0.643	0.274	0.172	1.394	1.950	1.848	-0.100	0.006	0.086
0.047	14.557	-0.073	-0.038	0.010	0.144	0.644	0.291	0.184	1.438	1.940	1.847	-0.101	0.008	0.088
0.048	14.548	-0.075	-0.042	-0.000	0.143	0.647	0.303	0.157	1.504	1.943	1.848	-0.103	0.008	0.091
0.048	14.542	-0.072	-0.042	-0.010	0.142	0.631	0.290	0.100	1.542	1.939	1.848	-0.104	0.009	0.094
0.048	14.548	-0.069	-0.041	-0.018	0.140	0.657	0.293	0.072	1.566	1.944	1.856	-0.101	0.007	0.095
0.048	14.536	-0.067	-0.046	-0.024	0.141	0.653	0.289	0.066	1.543	1.948	1.846	-0.104	0.008	0.096
0.048	14.548	-0.068	-0.048	-0.029	0.141	0.656	0.293	0.073	1.501	1.940	1.852	-0.102	0.009	0.097
0.049	14.551	-0.063	-0.048	-0.032	0.143	0.660	0.313	0.147	1.444	1.947	1.849	-0.103	0.007	0.098
0.049	14.560	-0.065	-0.051	-0.034	0.146	0.646	0.325	0.194	1.455	1.949	1.849	-0.100	0.009	0.101
0.049	14.514	-0.062	-0.053	-0.036	0.149	0.618	0.348	0.201	1.453	1.936	1.853	-0.099	0.006	0.101
0.049	14.529	-0.060	-0.058	-0.034	0.154	0.651	0.328	0.186	1.488	1.939	1.849	-0.099	0.010	0.101
0.049	14.566	-0.059	-0.060	-0.030	0.161	0.630	0.341	0.156	1.516	1.948	1.851	-0.096	0.005	0.102
0.050	14.557	-0.055	-0.062	-0.028	0.169	0.651	0.330	0.110	1.529	1.939	1.853	-0.098	0.003	0.105
0.050	14.554	-0.054	-0.064	-0.026	0.176	0.640	0.331	0.076	1.532	1.933	1.848	-0.095	0.004	0.104
0.050	14.566	-0.052	-0.067	-0.019	0.185	0.635	0.337	0.054	1.522	1.944	1.848	-0.093	0.003	0.104
0.050	14.551	-0.052	-0.070	-0.012	0.194	0.626	0.357	0.048	1.528	1.946	1.851	-0.093	0.003	0.104
0.050	14.526	-0.051	-0.072	-0.008	0.202	0.609	0.378	0.061	1.503	1.941	1.855	-0.090	0.001	0.104
0.051	14.529	-0.048	-0.076	-0.004	0.212	0.599	0.402	0.058	1.478	1.947	1.853	-0.091	0.002	0.102
0.051	14.539	-0.047	-0.078	0.002	0.218	0.563	0.402	0.047	1.487	1.943	1.851	-0.086	0.001	0.103
0.051	14.560	-0.043	-0.079	0.005	0.227	0.577	0.409	0.001	1.471	1.947	1.847	-0.088	-0.001	0.107
0.051	14.557	-0.041	-0.081	0.009	0.235	0.555	0.391	-0.059	1.493	1.939	1.846	-0.088	-0.000	0.100
0.051	14.542	-0.037	-0.083	0.009	0.240	0.556	0.404	-0.094	1.474	1.938	1.849	-0.086	-0.004	0.095
0.052	14.536	-0.035	-0.083	0.010	0.246	0.558	0.399	-0.105	1.475	1.940	1.856	-0.085	-0.005	0.097
0.052	14.539	-0.033	-0.085	0.011	0.247	0.545	0.408	-0.053	1.467	1.942	1.844	-0.085	-0.005	0.094
0.052	14.529	-0.034	-0.083	0.012	0.250	0.550	0.412	-0.032	1.444	1.946	1.852	-0.083	-0.008	0.093
0.052	14.545	-0.034	-0.084	0.012	0.250	0.531	0.424	-0.015	1.483	1.944	1.845	-0.082	-0.009	0.095
0.052	14.548	-0.033	-0.084	0.013	0.251	0.525	0.417	-0.033	1.465	1.948	1.842	-0.082	-0.011	0.086
0.053	14.520	-0.033	-0.083	0.011	0.246	0.502	0.417	-0.078	1.493	1.948	1.852	-0.082	-0.013	0.086
0.053	14.554	-0.029	-0.080	0.012	0.242	0.505	0.398	-0.125	1.501	1.941	1.852	-0.082	-0.014	0.083
0.053	14.548	-0.027	-0.080	0.011	0.236	0.516	0.396	-0.137	1.484	1.940	1.850	-0.080	-0.017	0.081
0.053	14.539	-0.025	-0.078	0.010	0.230	0.508	0.393	-0.129	1.463	1.943	1.849	-0.079	-0.017	0.082
0.053	14.554	-0.023	-0.075	0.010	0.221	0.505	0.404	-0.074	1.474	1.944	1.856	-0.079	-0.020	0.079
0.054	14.545	-0.022	-0.074	0.011	0.211	0.522	0.396	-0.039	1.463	1.944	1.854	-0.078	-0.021	0.080
0.054	14.539	-0.023	-0.073	0.011	0.202	0.518	0.404	-0.012	1.451	1.944	1.849	-0.077	-0.022	0.077
0.054	14.536	-0.023	-0.070	0.012	0.191	0.499	0.368	-0.057	1.457	1.938	1.847	-0.077	-0.025	0.077
0.054	14.548	-0.024	-0.068	0.012	0.182	0.486	0.365	-0.122	1.459	1.943	1.844	-0.077	-0.025	0.076
0.054	14.542	-0.028	-0.067	0.013	0.172	0.483	0.380	-0.158	1.457	1.937	1.842	-0.075	-0.025	0.074
0.055	14.551	-0.026	-0.067	0.014	0.164	0.505	0.366	-0.180	1.455	1.946	1.848	-0.076	-0.025	0.075
0.055	14.542	-0.025	-0.066	0.015	0.156	0.504	0.354	-0.159	1.420	1.938	1.843	-0.073	-0.028	0.070
0.055	14.548	-0.028	-0.066	0.015	0.151	0.511	0.387	-0.104	1.394	1.947	1.844	-0.075	-0.028	0.074
0.055	14.554	-0.030	-0.067	0.018	0.144	0.535	0.419	-0.054	1.384	1.939	1.847	-0.072	-0.026	0.073
0.055	14.557	-0.027	-0.066	0.017	0.142	0.541	0.410	-0.045	1.393	1.947	1.851	-0.074	-0.026	0.071
0.056	14.545	-0.030	-0.066	0.017	0.141	0.551	0.381	-0.078	1.441	1.935	1.854	-0.073	-0.026	0.073
0.056	14.542	-0.032	-0.068	0.015	0.142	0.541	0.400	-0.094	1.465	1.931	1.855	-0.076	-0.024	0.073
0.056	14.554	-0.036	-0.067	0.011	0.142	0.547	0.413	-0.134	1.464	1.930	1.847	-0.077	-0.024	0.070
0.056	14.554	-0.038	-0.066	0.009	0.146	0.569	0.395	-0.132	1.451	1.940	1.844	-0.074	-0.023	0.068
0.056	14.560	-0.041	-0.069	0.005	0.149	0.586	0.407	-0.080	1.438	1.929	1.850	-0.076	-0.022	0.068
0.057	14.548	-0.045	-0.070	0.000	0.154	0.587	0.416	-0.023	1.416	1.934	1.839	-0.072	-0.024	0.067
0.057	14.542	-0.045	-0.070	-0.004	0.160	0.610	0.421	-0.002	1.428	1.936	1.851	-0.077	-0.021	0.066
0.057	14.569	-0.047	-0.069	-0.010	0.164	0.599	0.412	0.002	1.446	1.939	1.850	-0.077	-0.021	0.063
0.057	14.539	-0.046	-0.069	-0.015	0.169	0.590	0.405	-0.026	1.460	1.941	1.854	-0.079	-0.016	0.062
0.057	14.520	-0.050	-0.068	-0.017	0.173	0.583	0.392	-0.049	1.450	1.935	1.850	-0.078	-0.018	0.061
0.058	14.542	-0.053	-0.065	-0.023	0.177	0.591	0.404	-0.076	1.463	1.937	1.848	-0.078	-0.020	0.060
0.058	14.529	-0.056	-0.065	-0.029	0.180	0.589	0.405	-0.092	1.459	1.935	1.848	-0.083	-0.019	0.064
0.058	14.539	-0.061	-0.065	-0.034	0.182	0.599	0.415	-0.077	1.446	1.938	1.848	-0.079	-0.020	0.061
0.058	14.542	-0.064	-0.065	-0.036	0.183	0.629	0.404	-0.036	1.440	1.931	1.849	-0.082	-0.023	0.061
0.058	14.532	-0.069	-0.064	-0.038	0.184	0.629	0.404	0.016	1.471	1.932	1.842	-0.086	-0.021	0.060
0.059	14.520	-0.074	-0.063	-0.043	0.182	0.622	0.409	0.033	1.487	1.935	1.850	-0.079	-0.024	0.061
0.059	14.539	-0.073	-0.063	-0.047	0.181	0.629	0.409	0.005	1.488	1.936	1.855	-0.083	-0.024	0.062
0.059	14.526	-0.078	-0.064	-0.048	0.180	0.606	0.413	-0.034	1.508	1.936	1.854	-0.078	-0.023	0.063
0.059	14.517	-0.078	-0.061	-0.051	0.177	0.638	0.456	-0.035	1.534	1.943	1.853	-0.084	-0.029	0.066
0.059	14.539	-0.082	-0.064	-0.053	0.174	0.646	0.451	-0.058	1.513	1.937	1.847	-0.085	-0.024	0.065
0.060	14.517	-0.084	-0.064	-0.054	0.168	0.660	0.463	-0.045	1.523	1.944	1.853	-0.083	-0.030	0.062
0.060	14.523	-0.086	-0.063	-0.055	0.165	0.659	0.456	-0.022	1.507	1.936	1.852	-0.084	-0.028	0.064
0.060	14.511	-0.090	-0.063	-0.056	0.157	0.668	0.461	0.013	1.532	1.941	1.849	-0.084	-0.027	0.067
0.060	14.520	-0.094	-0.062	-0.058	0.152	0.652	0.456	0.015	1.575	1.941	1.850	-0.083	-0.032	0.068
0.060	14.526	-0.096	-0.062	-0.059	0.148	0.655	0.451	0.019	1.611	1.938	1.849	-0.083	-0.034	0.069
0.061	14.514	-0.099	-0.063	-0.058	0.142	0.642	0.457	0.000	1.605	1.943	1.847	-0.084	-0.034	0.067
0.061	14.508	-0.102	-0.062	-0.060	0.139	0.646	0.472	-0.016	1.590	1.936	1.847	-0.083	-0.036	0.069
0.061	14.520	-0.105	-0.061	-0.059	0.135	0.643	0.476	0.016	1.579	1.944	1.852	-0.082	-0.036	0.067
0.061	14.539	-0.107	-0.062	-0.059	0.131	0.668	0.482	0.051	1.551	1.937	1.848	-0.080	-0.037	0.067
0.061	14.523	-0.112	-0.060	-0.060	0.127	0.657	0.499	0.063	1.568	1.931	1.853	-0.078	-0.037	0.065
0.062	14.520	-0.111	-0.058	-0.058	0.124	0.647	0.513	0.088	1.610	1.934	1.850	-0.077	-0.039	0.063
0.062	14.523	-0.113	-0.057	-0.059	0.120	0.644	0.518	0.074	1.640	1.943	1.849	-0.075	-0.041	0.065
0.062	14.520	-0.116	-0.055	-0.058	0.117	0.643	0.544	0.064	1.635	1.942	1.846	-0.073	-0.037	0.060
0.062	14.517	-0.117	-0.052	-0.054	0.115	0.641	0.561	0.058	1.619	1.939	1.848	-0.072	-0.038	0.061
0.062	14.523	-0.119	-0.050	-0.053	0.114	0.631	0.568	0.039	1.572	1.933	1.848	-0.070	-0.037	0.059
0.063	14.523	-0.118	-0.046	-0.052	0.112	0.657	0.606	0.050	1.528	1.931	1.847	-0.069	-0.036	0.058
0.063	14.517	-0.123	-0.044	-0.051	0.110	0.652	0.593	0.057	1.515	1.939	1.848	-0.067	-0.035	0.056
0.063	14.505	-0.126	-0.041	-0.048	0.111	0.654	0.597	0.053	1.520	1.940	1.852	-0.065	-0.034	0.053
0.063	14.526	-0.126	-0.039	-0.044	0.112	0.637	0.615	0.050	1.534	1.935	1.848	-0.064	-0.034	0.052
0.063	14.529	-0.124	-0.039	-0.040	0.111	0.628	0.607	0.072	1.553	1.934	1.851	-0.062	-0.032	0.051
0.064	14.545	-0.125	-0.039	-0.036	0.112	0.613	0.633	0.064	1.577	1.938	1.847	-0.058	-0.032	0.050
0.064	14.529	-0.127	-0.039	-0.031	0.115	0.598	0.630	0.087	1.560	1.939	1.845	-0.057	-0.031	0.050
0.064	14.526	-0.125	-0.037	-0.027	0.116	0.616	0.650	0.080	1.530	1.944	1.851	-0.059	-0.029	0.048
0.064	14.557	-0.124	-0.038	-0.024	0.119	0.607	0.650	0.094	1.514	1.939	1.845	-0.058	-0.028	0.047
0.064	14.551	-0.126	-0.042	-0.021	0.121	0.613	0.648	0.093	1.514	1.933	1.853	-0.057	-0.026	0.047
0.065	14.557	-0.125	-0.042	-0.018	0.121	0.597	0.635	0.107	1.518	1.927	1.849	-0.058	-0.026	0.047
0.065	14.548	-0.125	-0.041	-0.015	0.125	0.577	0.639	0.124	1.525	1.937	1.848	-0.056	-0.024	0.049
0.065	14.563	-0.126	-0.043	-0.014	0.125	0.574	0.644	0.120	1.560	1.936	1.851	-0.057	-0.024	0.047
0.065	14.557	-0.126	-0.045	-0.015	0.128	0.563	0.642	0.105	1.548	1.940	1.848	-0.056	-0.024	0.045
0.065	14.563	-0.123	-0.046	-0.014	0.127	0.579	0.659	0.088	1.516	1.943	1.850	-0.057	-0.023	0.044
0.066	14.569	-0.124	-0.046	-0.017	0.128	0.614	0.668	0.092	1.471	1.943	1.847	-0.056	-0.020	0.043
0.066	14.572	-0.123	-0.048	-0.018	0.128	0.628	0.668	0.097	1.427	1.949	1.843	-0.056	-0.019	0.041
0.066	14.584	-0.124	-0.048	-0.019	0.127	0.638	0.666	0.112	1.419	1.947	1.846	-0.057	-0.015	0.041
0.066	14.572	-0.123	-0.049	-0.021	0.125	0.666	0.666	0.171	1.439	1.940	1.855	-0.058	-0.017	0.043
0.066	14.594	-0.125	-0.048	-0.027	0.124	0.660	0.654	0.184	1.486	1.942	1.848	-0.062	-0.016	0.041
0.067	14.600	-0.126	-0.047	-0.030	0.121	0.657	0.654	0.175	1.523	1.945	1.845	-0.061	-0.014	0.041
0.067	14.590	-0.123	-0.045	-0.032	0.118	0.637	0.652	0.157	1.535	1.936	1.849	-0.061	-0.014	0.041
0.067	14.584	-0.122	-0.044	-0.033	0.117	0.638	0.648	0.151	1.566	1.940	1.843	-0.062	-0.012	0.041
0.067	14.590	-0.119	-0.042	-0.035	0.115	0.656	0.627	0.153	1.551	1.939	1.848	-0.062	-0.012	0.040
0.067	14.594	-0.119	-0.042	-0.036	0.112	0.671	0.627	0.187	1.584	1.946	1.846	-0.065	-0.011	0.042
0.068	14.594	-0.118	-0.039	-0.038	0.109	0.684	0.617	0.225	1.599	1.937	1.850	-0.064	-0.007	0.039
0.068	14.584	-0.119	-0.037	-0.037	0.108	0.713	0.631	0.240	1.587	1.929	1.860	-0.066	-0.008	0.037
0.068	14.590	-0.119	-0.038	-0.037	0.105	0.716	0.609	0.250	1.589	1.929	1.847	-0.067	-0.005	0.039
0.068	14.603	-0.118	-0.036	-0.037	0.105	0.717	0.586	0.249	1.588	1.937	1.847	-0.065	-0.001	0.037
0.068	14.581	-0.115	-0.037	-0.036	0.099	0.727	0.579	0.255	1.550	1.944	1.840	-0.068	-0.001	0.040
0.069	14.615	-0.116	-0.036	-0.035	0.101	0.705	0.560	0.234	1.512	1.939	1.849	-0.069	0.005	0.038
0.069	14.621	-0.114	-0.035	-0.033	0.097	0.707	0.545	0.235	1.499	1.943	1.849	-0.068	0.003	0.039
0.069	14.597	-0.111	-0.036	-0.030	0.095	0.715	0.537	0.239	1.493	1.947	1.847	-0.071	0.006	0.041
0.069	14.597	-0.112	-0.038	-0.027	0.094	0.705	0.517	0.272	1.490	1.943	1.847	-0.069	0.010	0.038
0.069	14.606	-0.109	-0.038	-0.025	0.092	0.711	0.513	0.299	1.500	1.934	1.844	-0.070	0.011	0.042
0.070	14.581	-0.107	-0.040	-0.021	0.092	0.723	0.498	0.317	1.491	1.943	1.852	-0.069	0.012	0.040
0.070	14.590	-0.104	-0.044	-0.018	0.093	0.752	0.484	0.304	1.468	1.944	1.847	-0.069	0.014	0.040
0.070	14.594	-0.103	-0.045	-0.013	0.094	0.730	0.473	0.286	1.487	1.938	1.846	-0.070	0.015	0.043
0.070	14.575	-0.100	-0.048	-0.011	0.092	0.725	0.461	0.276	1.484	1.941	1.851	-0.069	0.017	0.040
0.070	14.609	-0.099	-0.050	-0.005	0.093	0.741	0.469	0.265	1.457	1.938	1.848	-0.069	0.020	0.041
0.071	14.597	-0.096	-0.053	-0.001	0.092	0.750	0.464	0.258	1.433	1.939	1.847	-0.069	0.022	0.039
0.071	14.590	-0.092	-0.055	0.001	0.090	0.728	0.466	0.269	1.435	1.932	1.845	-0.069	0.023	0.039
0.071	14.615	-0.091	-0.057	0.005	0.090	0.696	0.465	0.289	1.418	1.931	1.849	-0.067	0.024	0.037
0.071	14.590	-0.087	-0.058	0.007	0.086	0.693	0.458	0.292	1.395	1.936	1.852	-0.065	0.023	0.036
0.071	14.612	-0.082	-0.061	0.010	0.085	0.691	0.436	0.275	1.419	1.942	1.853	-0.067	0.024	0.035
0.072	14.612	-0.080	-0.062	0.013	0.083	0.677	0.421	0.266	1.403	1.934	1.846	-0.066	0.024	0.032
0.072	14.609	-0.073	-0.064	0.014	0.082	0.698	0.424	0.259	1.445	1.942	1.847	-0.065	0.023	0.031
0.072	14.615	-0.068	-0.066	0.015	0.081	0.717	0.463	0.242	1.438	1.928	1.849	-0.064	0.025	0.032
0.072	14.618	-0.065	-0.066	0.017	0.081	0.722	0.444	0.247	1.423	1.937	1.852	-0.064	0.020	0.030
0.072	14.615	-0.062	-0.066	0.018	0.078	0.724	0.441	0.284	1.430	1.937	1.849	-0.060	0.019	0.032
0.073	14.612	-0.058	-0.063	0.019	0.079	0.694	0.469	0.326	1.434	1.935	1.851	-0.061	0.018	0.029
0.073	14.639	-0.055	-0.064	0.021	0.081	0.681	0.475	0.360	1.442	1.945	1.853	-0.063	0.016	0.029
0.073	14.618	-0.054	-0.061	0.022	0.080	0.648	0.457	0.369	1.499	1.943	1.851	-0.061	0.014	0.028
0.073	14.606	-0.052	-0.063	0.023	0.079	0.638	0.440	0.387	1.526	1.941	1.853	-0.062	0.010	0.027
0.073	14.615	-0.051	-0.060	0.021	0.082	0.634	0.451	0.383	1.544	1.931	1.852	-0.060	0.008	0.026
0.074	14.627	-0.048	-0.059	0.019	0.083	0.631	0.436	0.343	1.552	1.932	1.845	-0.057	0.005	0.026
0.074	14.618	-0.046	-0.058	0.017	0.087	0.646	0.431	0.314	1.549	1.940	1.853	-0.062	0.002	0.025
0.074	14.612	-0.043	-0.058	0.014	0.091	0.663	0.435	0.375	1.537	1.933	1.850	-0.059	0.002	0.025
0.074	14.618	-0.040	-0.058	0.011	0.098	0.683	0.441	0.431	1.529	1.939	1.845	-0.060	-0.004	0.025
0.074	14.600	-0.039	-0.056	0.009	0.103	0.686	0.441	0.475	1.529	1.936	1.855	-0.059	-0.010	0.027
0.075	14.594	-0.035	-0.056	0.003	0.108	0.678	0.434	0.492	1.526	1.926	1.849	-0.061	-0.011	0.023
0.075	14.615	-0.037	-0.056	-0.002	0.114	0.639	0.447	0.502	1.537	1.924	1.847	-0.062	-0.014	0.023
0.075	14.609	-0.036	-0.057	-0.005	0.117	0.587	0.449	0.474	1.528	1.932	1.849	-0.063	-0.019	0.023
0.075	14.615	-0.038	-0.055	-0.006	0.122	0.549	0.463	0.470	1.507	1.923	1.847	-0.061	-0.020	0.019
0.075	14.594	-0.041	-0.056	-0.013	0.124	0.535	0.473	0.481	1.499	1.921	1.850	-0.064	-0.023	0.021
0.076	14.594	-0.042	-0.055	-0.018	0.128	0.553	0.474	0.505	1.476	1.928	1.852	-0.066	-0.024	0.019
0.076	14.590	-0.044	-0.054	-0.026	0.130	0.579	0.463	0.536	1.470	1.924	1.847	-0.067	-0.028	0.019
0.076	14.600	-0.044	-0.054	-0.031	0.133	0.605	0.447	0.535	1.457	1.924	1.853	-0.069	-0.033	0.019
0.076	14.600	-0.046	-0.055	-0.035	0.132	0.589	0.457	0.529	1.478	1.928	1.852	-0.072	-0.034	0.016
0.076	14.600	-0.048	-0.055	-0.039	0.137	0.563	0.452	0.519	1.466	1.921	1.847	-0.074	-0.035	0.012
0.077	14.594	-0.050	-0.054	-0.044	0.138	0.530	0.468	0.499	1.441	1.933	1.842	-0.073	-0.038	0.012
0.077	14.606	-0.053	-0.054	-0.047	0.140	0.524	0.482	0.526	1.404	1.920	1.843	-0.075	-0.038	0.009
0.077	14.603	-0.055	-0.052	-0.047	0.140	0.524	0.494	0.548	1.417	1.922	1.846	-0.074	-0.042	0.008
0.077	14.587	-0.058	-0.052	-0.048	0.140	0.541	0.485	0.603	1.385	1.930	1.844	-0.078	-0.043	0.007
0.077	14.600	-0.060	-0.049	-0.044	0.138	0.587	0.480	0.670	1.373	1.926	1.852	-0.080	-0.046	0.003
0.078	14.609	-0.063	-0.049	-0.041	0.135	0.605	0.458	0.687	1.371	1.924	1.851	-0.081	-0.044	0.004
0.078	14.606	-0.066	-0.046	-0.039	0.132	0.608	0.443	0.688	1.377	1.920	1.845	-0.082	-0.049	-0.005
0.078	14.578	-0.071	-0.044	-0.036	0.131	0.605	0.456	0.670	1.363	1.909	1.851	-0.085	-0.051	-0.002
0.078	14.600	-0.074	-0.042	-0.033	0.129	0.550	0.445	0.611	1.374	1.923	1.851	-0.087	-0.052	0.003
0.078	14.597	-0.078	-0.041	-0.029	0.125	0.518	0.462	0.598	1.369	1.930	1.850	-0.087	-0.054	-0.005
0.079	14.597	-0.078	-0.041	-0.027	0.125	0.543	0.461	0.583	1.385	1.924	1.851	-0.092	-0.054	-0.004
0.079	14.603	-0.084	-0.040	-0.024	0.124	0.537	0.450	0.607	1.413	1.918	1.848	-0.092	-0.055	-0.009
0.079	14.587	-0.086	-0.038	-0.023	0.123	0.570	0.434	0.646	1.404	1.926	1.846	-0.094	-0.059	-0.008
0.079	14.600	-0.086	-0.039	-0.024	0.124	0.585	0.416	0.682	1.427	1.925	1.843	-0.095	-0.058	-0.011
0.079	14.618	-0.086	-0.038	-0.022	0.122	0.594	0.416	0.666	1.413	1.931	1.848	-0.095	-0.060	-0.012
0.080	14.594	-0.091	-0.038	-0.023	0.123	0.595	0.402	0.639	1.408	1.924	1.842	-0.096	-0.063	-0.014
0.080	14.603	-0.093	-0.038	-0.023	0.123	0.589	0.384	0.608	1.401	1.924	1.844	-0.099	-0.061	-0.017
0.080	14.636	-0.095	-0.037	-0.025	0.123	0.574	0.396	0.596	1.426	1.920	1.845	-0.101	-0.061	-0.018
0.080	14.633	-0.097	-0.036	-0.027	0.125	0.594	0.404	0.609	1.470	1.915	1.849	-0.103	-0.063	-0.022
0.080	14.606	-0.101	-0.037	-0.032	0.126	0.623	0.385	0.641	1.446	1.921	1.848	-0.104	-0.063	-0.027
0.081	14.609	-0.105	-0.035	-0.036	0.130	0.641	0.352	0.675	1.432	1.918	1.853	-0.102	-0.063	-0.026
0.081	14.612	-0.103	-0.033	-0.043	0.133	0.683	0.348	0.692	1.443	1.915	1.846	-0.106	-0.064	-0.028
0.081	14.615	-0.106	-0.034	-0.048	0.133	0.695	0.355	0.677	1.455	1.917	1.840	-0.108	-0.063	-0.030
0.081	14.624	-0.107	-0.037	-0.053	0.138	0.668	0.359	0.631	1.464	1.926	1.842	-0.109	-0.063	-0.033
0.081	14.612	-0.106	-0.035	-0.059	0.138	0.687	0.356	0.592	1.480	1.925	1.845	-0.113	-0.064	-0.034
0.082	14.609	-0.107	-0.033	-0.060	0.138	0.702	0.395	0.620	1.475	1.920	1.851	-0.111	-0.063	-0.035
0.082	14.633	-0.108	-0.032	-0.063	0.134	0.726	0.402	0.656	1.490	1.924	1.843	-0.112	-0.062	-0.036
0.082	14.627	-0.108	-0.036	-0.065	0.132	0.762	0.390	0.717	1.480	1.922	1.847	-0.113	-0.064	-0.034
0.082	14.630	-0.112	-0.033	-0.065	0.128	0.796	0.388	0.753	1.487	1.928	1.849	-0.114	-0.063	-0.035
0.082	14.630	-0.113	-0.030	-0.064	0.122	0.801	0.368	0.734	1.517	1.917	1.847	-0.114	-0.063	-0.036
0.083	14.627	-0.113	-0.031	-0.064	0.118	0.811	0.364	0.675	1.529	1.925	1.851	-0.116	-0.063	-0.034
0.083	14.636	-0.114	-0.029	-0.061	0.112	0.813	0.369	0.609	1.527	1.924	1.848	-0.117	-0.059	-0.033
0.083	14.639	-0.112	-0.028	-0.057	0.108	0.820	0.399	0.591	1.525	1.919	1.848	-0.118	-0.062	-0.029
0.083	14.639	-0.111	-0.027	-0.056	0.104	0.812	0.407	0.599	1.479	1.924	1.849	-0.121	-0.063	-0.026
0.083	14.633	-0.111	-0.027	-0.052	0.100	0.820	0.414	0.618	1.446	1.912	1.843	-0.122	-0.061	-0.023
0.084	14.648	-0.109	-0.027	-0.048	0.098	0.839	0.405	0.665	1.434	1.923	1.846	-0.121	-0.062	-0.021
0.084	14.633	-0.109	-0.028	-0.044	0.095	0.853	0.396	0.679	1.418	1.918	1.845	-0.122	-0.060	-0.017
0.084	14.639	-0.105	-0.029	-0.039	0.093	0.856	0.376	0.681	1.453	1.921	1.846	-0.121	-0.060	-0.014
0.084	14.642	-0.105	-0.031	-0.032	0.092	0.849	0.366	0.641	1.442	1.920	1.848	-0.123	-0.057	-0.007
0.084	14.642	-0.102	-0.032	-0.029	0.094	0.826	0.388	0.610	1.454	1.914	1.845	-0.125	-0.054	-0.007
0.085	14.645	-0.100	-0.029	-0.024	0.096	0.823	0.407	0.601	1.420	1.920	1.851	-0.125	-0.052	-0.008
0.085	14.636	-0.097	-0.029	-0.021	0.097	0.823	0.413	0.638	1.386	1.917	1.851	-0.126	-0.051	-0.002
0.085	14.636	-0.094	-0.028	-0.017	0.100	0.839	0.417	0.694	1.343	1.911	1.853	-0.126	-0.045	0.000
0.085	14.658	-0.094	-0.027	-0.013	0.102	0.836	0.405	0.752	1.325	1.925	1.841	-0.126	-0.044	0.004
0.085	14.667	-0.093	-0.025	-0.009	0.107	0.836	0.395	0.760	1.331	1.921	1.847	-0.125	-0.039	0.007
0.086	14.642	-0.092	-0.027	-0.006	0.109	0.814	0.366	0.751	1.332	1.912	1.847	-0.124	-0.038	0.007
0.086	14.670	-0.090	-0.027	-0.002	0.114	0.813	0.398	0.736	1.350	1.926	1.850	-0.124	-0.035	0.010
0.086	14.667	-0.089	-0.027	0.002	0.115	0.773	0.395	0.726	1.362	1.921	1.847	-0.124	-0.029	0.009
0.086	14.642	-0.086	-0.028	0.004	0.114	0.765	0.445	0.754	1.340	1.926	1.853	-0.124	-0.025	0.012
0.086	14.648	-0.083	-0.030	0.008	0.115	0.765	0.444	0.776	1.289	1.930	1.848	-0.122	-0.021	0.013
0.087	14.655	-0.079	-0.031	0.012	0.114	0.784	0.416	0.819	1.260	1.928	1.847	-0.121	-0.017	0.017
0.087	14.664	-0.080	-0.032	0.016	0.110	0.760	0.423	0.839	1.240	1.927	1.851	-0.123	-0.012	0.021
0.087	14.667	-0.078	-0.036	0.021	0.107	0.732	0.405	0.834	1.284	1.931	1.854	-0.123	-0.008	0.021
0.087	14.682	-0.078	-0.036	0.026	0.103	0.718	0.409	0.804	1.299	1.923	1.847	-0.122	-0.005	0.025
0.087	14.682	-0.078	-0.036	0.033	0.101	0.707	0.422	0.803	1.341	1.920	1.847	-0.121	-0.003	0.026
0.088	14.682	-0.074	-0.039	0.040	0.095	0.699	0.434	0.803	1.354	1.923	1.843	-0.119	-0.002	0.030
0.088	14.673	-0.077	-0.042	0.046	0.091	0.695	0.440	0.814	1.347	1.930	1.841	-0.119	0.002	0.034
0.088	14.673	-0.074	-0.043	0.052	0.086	0.711	0.475	0.863	1.289	1.923	1.845	-0.118	0.006	0.034
0.088	14.676	-0.072	-0.043	0.059	0.083	0.714	0.469	0.898	1.257	1.922	1.845	-0.117	0.008	0.039
0.088	14.694	-0.065	-0.048	0.066	0.078	0.704	0.427	0.875	1.225	1.919	1.840	-0.116	0.011	0.042
0.089	14.697	-0.064	-0.049	0.072	0.074	0.700	0.448	0.835	1.250	1.927	1.845	-0.115	0.013	0.046
0.089	14.667	-0.061	-0.052	0.078	0.073	0.698	0.438	0.783	1.278	1.912	1.847	-0.114	0.016	0.050
0.089	14.688	-0.060	-0.051	0.085	0.070	0.690	0.451	0.742	1.269	1.927	1.851	-0.111	0.017	0.053
0.089	14.691	-0.057	-0.053	0.090	0.069	0.701	0.434	0.759	1.249	1.925	1.845	-0.111	0.017	0.058
0.089	14.691	-0.057	-0.054	0.094	0.071	0.708	0.480	0.748	1.251	1.922	1.848	-0.109	0.019	0.060
0.090	14.670	-0.055	-0.053	0.097	0.073	0.702	0.495	0.778	1.169	1.908	1.849	-0.110	0.020	0.065
0.090	14.679	-0.052	-0.052	0.099	0.076	0.714	0.481	0.775	1.160	1.923	1.846	-0.106	0.023	0.067
0.090	14.688	-0.049	-0.053	0.101	0.081	0.713	0.466	0.795	1.175	1.921	1.841	-0.106	0.022	0.070
0.090	14.676	-0.046	-0.054	0.101	0.087	0.717	0.464	0.762	1.220	1.922	1.847	-0.101	0.023	0.074
0.090	14.670	-0.043	-0.053	0.096	0.093	0.732	0.468	0.710	1.245	1.927	1.849	-0.099	0.024	0.074
0.091	14.679	-0.041	-0.054	0.091	0.101	0.750	0.484	0.689	1.260	1.922	1.854	-0.097	0.023	0.079
0.091	14.648	-0.039	-0.056	0.085	0.108	0.780	0.504	0.718	1.226	1.923	1.847	-0.094	0.024	0.078
0.091	14.670	-0.038	-0.056	0.077	0.116	0.808	0.514	0.756	1.217	1.922	1.847	-0.091	0.025	0.078
0.091	14.673	-0.036	-0.057	0.067	0.125	0.843	0.530	0.750	1.213	1.923	1.852	-0.088	0.023	0.078
0.091	14.688	-0.033	-0.059	0.057	0.131	0.853	0.525	0.703	1.204	1.931	1.848	-0.088	0.027	0.079
0.092	14.667	-0.027	-0.059	0.044	0.139	0.866	0.526	0.633	1.221	1.920	1.848	-0.084	0.027	0.080
0.092	14.676	-0.026	-0.062	0.034	0.146	0.861	0.529	0.573	1.226	1.914	1.848	-0.082	0.027	0.077
0.092	14.676	-0.021	-0.063	0.024	0.154	0.872	0.536	0.551	1.261	1.917	1.850	-0.081	0.028	0.076
0.092	14.648	-0.018	-0.065	0.015	0.158	0.893	0.554	0.595	1.246	1.909	1.852	-0.077	0.028	0.074
0.092	14.685	-0.014	-0.064	0.006	0.165	0.919	0.575	0.641	1.249	1.921	1.850	-0.077	0.032	0.075
0.093	14.679	-0.013	-0.064	-0.002	0.169	0.943	0.601	0.702	1.228	1.920	1.844	-0.076	0.030	0.070
0.093	14.670	-0.012	-0.064	-0.010	0.170	0.987	0.603	0.740	1.259	1.916	1.847	-0.074	0.028	0.064
0.093	14.670	-0.012	-0.062	-0.016	0.172	1.001	0.602	0.725	1.272	1.919	1.847	-0.074	0.029	0.063
0.093	14.639	-0.010	-0.063	-0.023	0.169	1.027	0.608	0.724	1.300	1.915	1.843	-0.073	0.031	0.061
0.093	14.664	-0.009	-0.060	-0.027	0.167	1.023	0.592	0.725	1.317	1.913	1.849	-0.070	0.030	0.058
0.094	14.682	-0.007	-0.060	-0.032	0.166	1.020	0.599	0.732	1.329	1.924	1.844	-0.071	0.031	0.055
0.094	14.664	-0.003	-0.059	-0.033	0.161	1.023	0.610	0.760	1.322	1.918	1.849	-0.069	0.029	0.052
0.094	14.667	0.000	-0.058	-0.033	0.158	1.022	0.618	0.784	1.308	1.917	1.855	-0.070	0.029	0.049
0.094	14.682	0.001	-0.056	-0.032	0.156	1.032	0.617	0.801	1.302	1.915	1.852	-0.073	0.030	0.043
0.094	14.667	0.000	-0.055	-0.030	0.146	1.028	0.614	0.789	1.285	1.919	1.844	-0.069	0.027	0.041
0.095	14.664	0.001	-0.051	-0.026	0.143	1.053	0.598	0.744	1.276	1.921	1.846	-0.068	0.027	0.038
0.095	14.676	-0.001	-0.049	-0.020	0.138	1.074	0.579	0.692	1.280	1.922	1.849	-0.069	0.026	0.036
0.095	14.667	-0.002	-0.049	-0.014	0.132	1.065	0.568	0.679	1.275	1.907	1.852	-0.069	0.023	0.035
0.095	14.670	-0.002	-0.048	-0.006	0.128	1.052	0.562	0.689	1.240	1.918	1.846	-0.069	0.024	0.031
0.095	14.658	-0.003	-0.049	0.001	0.124	1.064	0.560	0.722	1.219	1.918	1.851	-0.068	0.023	0.031
0.096	14.673	-0.002	-0.049	0.009	0.122	1.074	0.590	0.746	1.227	1.916	1.846	-0.070	0.022	0.026
0.096	14.700	-0.003	-0.050	0.016	0.120	1.041	0.568	0.756	1.238	1.910	1.854	-0.070	0.020	0.027
0.096	14.694	-0.003	-0.050	0.022	0.121	1.046	0.548	0.724	1.262	1.914	1.856	-0.070	0.019	0.025
0.096	14.679	-0.007	-0.051	0.029	0.120	1.046	0.541	0.677	1.273	1.913	1.849	-0.072	0.016	0.023
0.096	14.676	-0.011	-0.051	0.033	0.124	1.033	0.524	0.646	1.253	1.920	1.849	-0.073	0.014	0.022
0.097	14.691	-0.017	-0.050	0.037	0.125	1.037	0.506	0.644	1.257	1.913	1.852	-0.073	0.012	0.015
0.097	14.694	-0.020	-0.051	0.040	0.131	1.025	0.530	0.675	1.252	1.914	1.852	-0.075	0.009	0.014
0.097	14.676	-0.026	-0.049	0.040	0.139	1.008	0.570	0.684	1.254	1.907	1.844	-0.074	0.007	0.012
0.097	14.667	-0.026	-0.046	0.038	0.144	0.994	0.530	0.675	1.280	1.916	1.844	-0.077	0.004	0.008
0.097	14.688	-0.031	-0.045	0.034	0.151	0.983	0.513	0.659	1.341	1.908	1.854	-0.075	0.001	0.005
0.098	14.697	-0.032	-0.043	0.030	0.156	0.979	0.514	0.646	1.329	1.918	1.851	-0.081	0.000	-0.000
0.098	14.703	-0.032	-0.042	0.022	0.160	0.992	0.524	0.606	1.328	1.926	1.850	-0.083	-0.005	-0.002
0.098	14.676	-0.035	-0.043	0.015	0.164	0.998	0.498	0.581	1.285	1.921	1.852	-0.083	-0.003	-0.006
0.098	14.700	-0.039	-0.037	0.007	0.166	0.997	0.517	0.603	1.243	1.915	1.850	-0.088	-0.010	-0.015
0.098	14.676	-0.043	-0.036	-0.002	0.168	0.984	0.521	0.663	1.261	1.918	1.847	-0.089	-0.012	-0.011
0.099	14.694	-0.048	-0.036	-0.013	0.165	0.959	0.521	0.658	1.271	1.921	1.849	-0.091	-0.015	-0.014
0.099	14.706	-0.049	-0.033	-0.021	0.163	0.944	0.537	0.639	1.329	1.926	1.854	-0.093	-0.019	-0.019
0.099	14.697	-0.053	-0.031	-0.029	0.160	0.911	0.518	0.617	1.386	1.922	1.857	-0.097	-0.019	-0.021
0.099	14.691	-0.057	-0.027	-0.037	0.153	0.921	0.537	0.614	1.393	1.919	1.856	-0.097	-0.023	-0.022
0.099	14.676	-0.058	-0.026	-0.044	0.146	0.926	0.524	0.586	1.387	1.917	1.856	-0.101	-0.024	-0.024
0.100	14.703	-0.060	-0.025	-0.049	0.136	0.924	0.537	0.575	1.404	1.914	1.855	-0.103	-0.025	-0.024
0.100	14.673	-0.062	-0.025	-0.053	0.127	0.918	0.534	0.608	1.403	1.914	1.850	-0.105	-0.029	-0.024
0.100	14.676	-0.064	-0.023	-0.056	0.114	0.908	0.553	0.618	1.441	1.919	1.852	-0.105	-0.033	-0.024
0.100	14.700	-0.066	-0.024	-0.057	0.104	0.901	0.548	0.639	1.500	1.918	1.852	-0.107	-0.032	-0.023
0.100	14.682	-0.069	-0.024	-0.059	0.091	0.873	0.548	0.662	1.519	1.914	1.852	-0.108	-0.033	-0.022
0.101	14.679	-0.072	-0.024	-0.059	0.078	0.863	0.568	0.665	1.603	1.913	1.849	-0.111	-0.033	-0.022
0.101	14.679	-0.074	-0.026	-0.059	0.071	0.861	0.560	0.648	1.588	1.917	1.847	-0.114	-0.032	-0.021
0.101	14.679	-0.078	-0.026	-0.060	0.059	0.869	0.557	0.665	1.554	1.921	1.847	-0.114	-0.036	-0.020
0.101	14.688	-0.078	-0.027	-0.058	0.049	0.887	0.549	0.683	1.550	1.919	1.849	-0.117	-0.035	-0.018
0.101	14.685	-0.080	-0.026	-0.058	0.046	0.883	0.551	0.684	1.538	1.928	1.853	-0.117	-0.033	-0.018
0.102	14.700	-0.082	-0.026	-0.056	0.038	0.873	0.545	0.700	1.523	1.927	1.857	-0.116	-0.033	-0.014
0.102	14.694	-0.081	-0.025	-0.055	0.036	0.863	0.541	0.704	1.531	1.928	1.853	-0.120	-0.031	-0.013
0.102	14.679	-0.086	-0.024	-0.055	0.034	0.853	0.557	0.679	1.526	1.919	1.854	-0.120	-0.035	-0.011
0.102	14.676	-0.085	-0.023	-0.055	0.033	0.846	0.561	0.658	1.518	1.922	1.853	-0.120	-0.034	-0.008
0.102	14.676	-0.087	-0.023	-0.056	0.035	0.871	0.558	0.658	1.472	1.922	1.855	-0.121	-0.033	-0.006
0.103	14.688	-0.090	-0.024	-0.059	0.038	0.900	0.548	0.653	1.439	1.921	1.854	-0.121	-0.033	-0.003
0.103	14.676	-0.092	-0.026	-0.061	0.044	0.921	0.549	0.639	1.406	1.917	1.853	-0.123	-0.031	-0.003
0.103	14.694	-0.093	-0.027	-0.066	0.049	0.907	0.547	0.628	1.392	1.921	1.852	-0.125	-0.033	0.002
0.103	14.697	-0.094	-0.027	-0.071	0.057	0.916	0.562	0.630	1.405	1.918	1.851	-0.126	-0.032	0.004
0.103	14.697	-0.093	-0.030	-0.074	0.065	0.921	0.572	0.645	1.409	1.916	1.850	-0.125	-0.032	0.007
0.104	14.679	-0.093	-0.032	-0.080	0.076	0.888	0.598	0.650	1.404	1.928	1.855	-0.127	-0.032	0.013
0.104	14.664	-0.093	-0.034	-0.083	0.085	0.869	0.595	0.665	1.395	1.927	1.846	-0.128	-0.032	0.014
0.104	14.679	-0.095	-0.034	-0.089	0.095	0.880	0.603	0.656	1.374	1.927	1.848	-0.129	-0.032	0.020
0.104	14.679	-0.094	-0.036	-0.092	0.103	0.893	0.591	0.622	1.340	1.917	1.850	-0.130	-0.032	0.021
0.104	14.670	-0.091	-0.038	-0.098	0.115	0.886	0.581	0.545	1.319	1.923	1.852	-0.132	-0.033	0.026
0.105	14.667	-0.094	-0.037	-0.100	0.126	0.875	0.574	0.474	1.306	1.926	1.860	-0.133	-0.033	0.031
0.105	14.661	-0.094	-0.041	-0.104	0.133	0.888	0.597	0.463	1.322	1.929	1.858	-0.134	-0.033	0.033
0.105	14.688	-0.093	-0.045	-0.106	0.140	0.872	0.609	0.450	1.301	1.918	1.850	-0.135	-0.033	0.037
0.105	14.697	-0.087	-0.046	-0.108	0.150	0.854	0.585	0.462	1.302	1.933	1.848	-0.138	-0.032	0.040
0.105	14.658	-0.086	-0.049	-0.110	0.155	0.860	0.599	0.483	1.311	1.931	1.851	-0.138	-0.035	0.045
0.106	14.670	-0.087	-0.051	-0.107	0.161	0.856	0.603	0.500	1.300	1.920	1.849	-0.138	-0.035	0.047
0.106	14.670	-0.083	-0.052	-0.105	0.166	0.869	0.565	0.490	1.300	1.920	1.852	-0.141	-0.035	0.050
0.106	14.667	-0.082	-0.055	-0.102	0.169	0.860	0.537	0.462	1.305	1.926	1.856	-0.140	-0.035	0.053
0.106	14.648	-0.084	-0.057	-0.097	0.170	0.875	0.537	0.435	1.324	1.932	1.860	-0.143	-0.033	0.055
0.106	14.645	-0.085	-0.056	-0.092	0.172	0.845	0.547	0.445	1.378	1.929	1.859	-0.146	-0.033	0.058
0.107	14.648	-0.083	-0.049	-0.085	0.170	0.831	0.559	0.458	1.390	1.939	1.858	-0.144	-0.031	0.060
0.107	14.630	-0.080	-0.049	-0.078	0.169	0.822	0.566	0.483	1.389	1.930	1.856	-0.144	-0.031	0.064
0.107	14.630	-0.078	-0.048	-0.072	0.166	0.810	0.547	0.494	1.377	1.928	1.853	-0.142	-0.029	0.066
0.107	14.645	-0.074	-0.042	-0.058	0.164	0.832	0.533	0.468	1.372	1.923	1.853	-0.145	-0.028	0.069
0.107	14.630	-0.070	-0.042	-0.048	0.158	0.808	0.509	0.423	1.367	1.927	1.848	-0.145	-0.027	0.073
0.108	14.627	-0.070	-0.042	-0.036	0.154	0.808	0.505	0.390	1.372	1.922	1.849	-0.142	-0.023	0.075
0.108	14.618	-0.068	-0.041	-0.023	0.149	0.786	0.497	0.353	1.374	1.928	1.850	-0.143	-0.021	0.077
0.108	14.615	-0.064	-0.041	-0.009	0.145	0.795	0.508	0.350	1.413	1.932	1.856	-0.141	-0.023	0.083
0.108	14.615	-0.068	-0.043	0.003	0.139	0.786	0.509	0.366	1.439	1.922	1.858	-0.140	-0.020	0.084
0.108	14.624	-0.068	-0.040	0.017	0.135	0.780	0.498	0.381	1.453	1.925	1.857	-0.139	-0.016	0.086
0.109	14.606	-0.068	-0.041	0.029	0.132	0.777	0.478	0.393	1.420	1.915	1.850	-0.135	-0.015	0.091
0.109	14.615	-0.065	-0.040	0.042	0.128	0.769	0.450	0.380	1.430	1.920	1.851	-0.133	-0.012	0.089
0.109	14.603	-0.062	-0.040	0.055	0.127	0.762	0.443	0.340	1.452	1.920	1.854	-0.133	-0.009	0.093
0.109	14.603	-0.060	-0.041	0.063	0.126	0.743	0.415	0.312	1.457	1.926	1.858	-0.128	-0.011	0.095
0.109	14.609	-0.056	-0.042	0.072	0.123	0.748	0.400	0.270	1.462	1.932	1.852	-0.126	-0.007	0.095
0.110	14.603	-0.056	-0.048	0.080	0.129	0.757	0.405	0.242	1.462	1.924	1.854	-0.122	-0.006	0.094
0.110	14.597	-0.053	-0.049	0.088	0.133	0.771	0.411	0.258	1.464	1.920	1.856	-0.122	-0.006	0.098
0.110	14.606	-0.054	-0.052	0.091	0.138	0.783	0.396	0.289	1.487	1.918	1.855	-0.119	-0.002	0.096
0.110	14.597	-0.053	-0.058	0.093	0.145	0.796	0.385	0.305	1.476	1.921	1.848	-0.116	-0.005	0.095
0.110	14.606	-0.052	-0.062	0.094	0.153	0.797	0.363	0.298	1.470	1.925	1.848	-0.113	-0.005	0.094
0.111	14.606	-0.047	-0.065	0.094	0.160	0.801	0.328	0.268	1.452	1.922	1.847	-0.111	-0.006	0.092
0.111	14.600	-0.047	-0.067	0.090	0.170	0.797	0.339	0.232	1.416	1.921	1.852	-0.106	-0.009	0.092
0.111	14.581	-0.044	-0.068	0.087	0.179	0.812	0.330	0.210	1.406	1.923	1.856	-0.103	-0.009	0.089
0.111	14.590	-0.041	-0.069	0.083	0.186	0.804	0.357	0.209	1.407	1.926	1.853	-0.100	-0.013	0.087
0.111	14.575	-0.039	-0.068	0.078	0.194	0.805	0.357	0.227	1.411	1.922	1.854	-0.099	-0.015	0.082
0.112	14.587	-0.039	-0.069	0.073	0.202	0.846	0.367	0.234	1.426	1.921	1.850	-0.094	-0.017	0.081
0.112	14.600	-0.038	-0.067	0.068	0.208	0.829	0.368	0.246	1.407	1.921	1.859	-0.092	-0.021	0.079
0.112	14.566	-0.036	-0.067	0.065	0.213	0.849	0.365	0.263	1.407	1.929	1.853	-0.090	-0.024	0.077
0.112	14.578	-0.035	-0.065	0.060	0.218	0.849	0.379	0.251	1.429	1.930	1.855	-0.083	-0.029	0.075
0.112	14.594	-0.033	-0.065	0.058	0.221	0.872	0.372	0.238	1.428	1.927	1.854	-0.085	-0.030	0.071
0.113	14.569	-0.032	-0.064	0.057	0.221	0.860	0.374	0.226	1.444	1.926	1.859	-0.083	-0.033	0.070
0.113	14.551	-0.029	-0.063	0.056	0.221	0.852	0.381	0.219	1.477	1.922	1.850	-0.081	-0.035	0.068
0.113	14.560	-0.027	-0.061	0.055	0.220	0.853	0.401	0.263	1.490	1.924	1.852	-0.079	-0.040	0.068
0.113	14.581	-0.028	-0.060	0.057	0.219	0.856	0.400	0.266	1.481	1.918	1.861	-0.078	-0.043	0.067
0.113	14.557	-0.027	-0.058	0.059	0.216	0.861	0.401	0.276	1.511	1.929	1.857	-0.077	-0.046	0.066
0.114	14.551	-0.027	-0.056	0.060	0.211	0.856	0.403	0.250	1.543	1.923	1.861	-0.075	-0.049	0.059
0.114	14.557	-0.024	-0.054	0.064	0.207	0.865	0.408	0.226	1.522	1.920	1.860	-0.076	-0.051	0.062
0.114	14.536	-0.028	-0.051	0.066	0.201	0.857	0.409	0.225	1.512	1.924	1.851	-0.074	-0.054	0.063
0.114	14.548	-0.030	-0.052	0.070	0.197	0.848	0.413	0.187	1.479	1.918	1.851	-0.070	-0.053	0.062
0.114	14.551	-0.029	-0.050	0.071	0.190	0.849	0.424	0.195	1.487	1.908	1.857	-0.073	-0.055	0.061
0.115	14.545	-0.028	-0.053	0.072	0.186	0.832	0.428	0.215	1.495	1.917	1.855	-0.074	-0.057	0.062
0.115	14.532	-0.028	-0.054	0.074	0.181	0.814	0.424	0.204	1.520	1.919	1.859	-0.073	-0.058	0.061
0.115	14.542	-0.028	-0.051	0.075	0.179	0.803	0.397	0.171	1.542	1.924	1.851	-0.075	-0.058	0.064
0.115	14.542	-0.030	-0.049	0.076	0.175	0.805	0.437	0.154	1.564	1.923	1.849	-0.073	-0.058	0.058
0.115	14.548	-0.031	-0.052	0.078	0.172	0.815	0.436	0.118	1.544	1.925	1.856	-0.073	-0.060	0.058
0.116	14.536	-0.032	-0.053	0.075	0.173	0.826	0.440	0.134	1.538	1.923	1.853	-0.073	-0.059	0.058
0.116	14.520	-0.033	-0.052	0.070	0.173	0.823	0.452	0.128	1.518	1.916	1.859	-0.073	-0.058	0.053
0.116	14.511	-0.036	-0.052	0.068	0.174	0.813	0.465	0.181	1.501	1.919	1.855	-0.074	-0.056	0.052
0.116	14.511	-0.038	-0.052	0.066	0.175	0.789	0.481	0.150	1.459	1.928	1.855	-0.073	-0.057	0.052
0.116	14.514	-0.040	-0.052	0.059	0.178	0.783	0.482	0.145	1.468	1.911	1.859	-0.076	-0.059	0.049
0.117	14.539	-0.044	-0.053	0.052	0.181	0.784	0.476	0.110	1.474	1.916	1.847	-0.076	-0.057	0.048
0.117	14.536	-0.046	-0.054	0.046	0.183	0.788	0.457	0.085	1.477	1.925	1.859	-0.075	-0.059	0.050
0.117	14.536	-0.048	-0.054	0.038	0.188	0.804	0.465	0.062	1.464	1.915	1.856	-0.078	-0.058	0.043
0.117	14.542	-0.051	-0.055	0.031	0.192	0.811	0.459	0.062	1.462	1.919	1.855	-0.081	-0.057	0.041
0.117	14.526	-0.054	-0.054	0.020	0.197	0.815	0.460	0.074	1.420	1.924	1.858	-0.080	-0.058	0.043
0.118	14.539	-0.058	-0.056	0.012	0.202	0.812	0.463	0.075	1.432	1.914	1.853	-0.084	-0.058	0.038
0.118	14.529	-0.063	-0.055	0.003	0.204	0.795	0.485	0.062	1.463	1.913	1.854	-0.085	-0.058	0.035
0.118	14.560	-0.069	-0.055	-0.006	0.205	0.791	0.486	0.075	1.466	1.913	1.854	-0.087	-0.062	0.033
0.118	14.542	-0.071	-0.056	-0.015	0.203	0.809	0.475	0.071	1.483	1.920	1.853	-0.090	-0.058	0.033
0.118	14.554	-0.078	-0.053	-0.026	0.198	0.797	0.476	0.051	1.523	1.917	1.851	-0.091	-0.055	0.030
0.119	14.551	-0.080	-0.050	-0.033	0.196	0.814	0.477	0.051	1.543	1.924	1.855	-0.095	-0.057	0.027
0.119	14.569	-0.083	-0.050	-0.044	0.191	0.803	0.445	0.048	1.545	1.917	1.851	-0.096	-0.059	0.031
0.119	14.575	-0.084	-0.045	-0.053	0.183	0.802	0.449	0.062	1.549	1.912	1.852	-0.099	-0.059	0.029
0.119	14.529	-0.086	-0.047	-0.064	0.172	0.811	0.433	0.071	1.536	1.916	1.859	-0.102	-0.059	0.032
0.119	14.569	-0.087	-0.046	-0.069	0.165	0.821	0.452	0.096	1.553	1.916	1.856	-0.105	-0.060	0.030
0.120	14.578	-0.089	-0.046	-0.078	0.151	0.808	0.441	0.131	1.556	1.916	1.858	-0.109	-0.060	0.027
0.120	14.563	-0.094	-0.044	-0.085	0.138	0.817	0.441	0.147	1.565	1.918	1.854	-0.112	-0.061	0.029
0.120	14.587	-0.097	-0.042	-0.092	0.125	0.836	0.421	0.154	1.607	1.916	1.862	-0.113	-0.060	0.028
0.120	14.569	-0.102	-0.040	-0.099	0.113	0.850	0.393	0.143	1.623	1.920	1.860	-0.116	-0.060	0.030
0.120	14.548	-0.102	-0.038	-0.106	0.098	0.836	0.398	0.142	1.653	1.905	1.852	-0.119	-0.061	0.032
0.121	14.554	-0.106	-0.036	-0.112	0.084	0.824	0.404	0.137	1.654	1.922	1.859	-0.121	-0.063	0.029
0.121	14.581	-0.106	-0.034	-0.116	0.070	0.826	0.400	0.153	1.653	1.912	1.859	-0.122	-0.060	0.030
0.121	14.554	-0.108	-0.029	-0.121	0.057	0.839	0.405	0.169	1.639	1.922	1.856	-0.123	-0.059	0.031
0.121	14.542	-0.110	-0.028	-0.126	0.045	0.831	0.399	0.177	1.614	1.919	1.857	-0.127	-0.058	0.032
0.121	14.569	-0.111	-0.027	-0.129	0.033	0.852	0.422	0.195	1.619	1.912	1.848	-0.129	-0.060	0.032
0.122	14.566	-0.114	-0.026	-0.131	0.023	0.878	0.425	0.195	1.623	1.921	1.855	-0.132	-0.059	0.030
0.122	14.563	-0.117	-0.025	-0.136	0.015	0.888	0.400	0.190	1.639	1.922	1.853	-0.132	-0.059	0.030
0.122	14.557	-0.118	-0.025	-0.134	0.009	0.889	0.386	0.184	1.610	1.917	1.852	-0.133	-0.059	0.028
0.122	14.572	-0.118	-0.025	-0.135	0.009	0.890	0.410	0.191	1.604	1.921	1.856	-0.135	-0.059	0.030
0.122	14.554	-0.121	-0.027	-0.135	0.007	0.885	0.450	0.204	1.585	1.917	1.860	-0.133	-0.058	0.029
0.123	14.554	-0.119	-0.027	-0.135	0.008	0.895	0.446	0.208	1.552	1.918	1.857	-0.133	-0.059	0.029
0.123	14.557	-0.120	-0.029	-0.134	0.011	0.884	0.441	0.206	1.548	1.922	1.850	-0.133	-0.060	0.028
0.123	14.536	-0.121	-0.031	-0.130	0.013	0.882	0.468	0.213	1.549	1.930	1.856	-0.135	-0.062	0.026
0.123	14.554	-0.122	-0.032	-0.129	0.017	0.914	0.457	0.178	1.556	1.919	1.859	-0.138	-0.061	0.026
0.123	14.545	-0.124	-0.033	-0.127	0.022	0.943	0.447	0.175	1.578	1.913	1.863	-0.136	-0.062	0.025
0.124	14.548	-0.125	-0.038	-0.123	0.027	0.943	0.439	0.167	1.586	1.915	1.854	-0.139	-0.063	0.022
0.124	14.551	-0.126	-0.043	-0.120	0.033	0.944	0.433	0.204	1.544	1.925	1.862	-0.138	-0.064	0.024
0.124	14.523	-0.125	-0.045	-0.117	0.040	0.949	0.449	0.208	1.510	1.918	1.851	-0.140	-0.066	0.020
0.124	14.523	-0.126	-0.050	-0.114	0.046	0.924	0.463	0.235	1.502	1.925	1.857	-0.140	-0.067	0.020
0.124	14.526	-0.122	-0.054	-0.110	0.050	0.911	0.464	0.197	1.477	1.926	1.861	-0.138	-0.069	0.021
0.125	14.520	-0.118	-0.058	-0.108	0.056	0.923	0.470	0.173	1.468	1.924	1.862	-0.144	-0.071	0.018
0.125	14.539	-0.119	-0.063	-0.105	0.062	0.948	0.477	0.148	1.475	1.926	1.858	-0.142	-0.070	0.017
0.125	14.532	-0.117	-0.067	-0.102	0.067	0.953	0.480	0.153	1.472	1.925	1.857	-0.143	-0.075	0.017
0.125	14.514	-0.116	-0.070	-0.098	0.071	0.947	0.483	0.170	1.427	1.918	1.856	-0.147	-0.074	0.014
0.125	14.511	-0.118	-0.073	-0.093	0.075	0.932	0.481	0.221	1.441	1.918	1.864	-0.147	-0.075	0.017
0.126	14.517	-0.114	-0.075	-0.091	0.079	0.922	0.502	0.245	1.432	1.919	1.857	-0.149	-0.076	0.019
0.126	14.508	-0.115	-0.079	-0.085	0.083	0.897	0.517	0.267	1.423	1.922	1.856	-0.152	-0.077	0.017
0.126	14.517	-0.112	-0.082	-0.081	0.081	0.888	0.537	0.253	1.463	1.922	1.863	-0.151	-0.080	0.014
0.126	14.505	-0.108	-0.084	-0.077	0.083	0.893	0.532	0.235	1.450	1.927	1.871	-0.155	-0.081	0.017
0.126	14.505	-0.106	-0.084	-0.074	0.081	0.900	0.512	0.229	1.459	1.930	1.869	-0.154	-0.081	0.013
0.127	14.511	-0.102	-0.086	-0.068	0.084	0.924	0.517	0.233	1.450	1.929	1.863	-0.156	-0.081	0.014
0.127	14.502	-0.102	-0.085	-0.065	0.082	0.917	0.522	0.257	1.451	1.925	1.857	-0.157	-0.080	0.012
0.127	14.502	-0.102	-0.089	-0.061	0.084	0.900	0.533	0.291	1.433	1.932	1.853	-0.157	-0.082	0.012
0.127	14.526	-0.102	-0.089	-0.056	0.083	0.869	0.544	0.304	1.433	1.929	1.861	-0.159	-0.081	0.014
0.127	14.499	-0.102	-0.089	-0.053	0.082	0.854	0.559	0.280	1.464	1.921	1.860	-0.158	-0.081	0.014
0.128	14.505	-0.098	-0.090	-0.048	0.081	0.848	0.561	0.269	1.503	1.926	1.858	-0.160	-0.081	0.015
0.128	14.499	-0.097	-0.090	-0.042	0.083	0.841	0.554	0.256	1.531	1.926	1.857	-0.162	-0.079	0.013
0.128	14.499	-0.096	-0.090	-0.039	0.081	0.841	0.533	0.232	1.519	1.925	1.857	-0.162	-0.076	0.014
0.128	14.505	-0.089	-0.089	-0.033	0.083	0.858	0.520	0.264	1.491	1.928	1.863	-0.159	-0.076	0.012
0.128	14.499	-0.087	-0.092	-0.026	0.085	0.909	0.487	0.296	1.496	1.931	1.856	-0.160	-0.076	0.014
0.129	14.505	-0.088	-0.091	-0.019	0.084	0.876	0.486	0.313	1.467	1.916	1.855	-0.160	-0.072	0.013
0.129	14.487	-0.086	-0.091	-0.012	0.087	0.854	0.506	0.335	1.444	1.924	1.858	-0.158	-0.069	0.013
0.129	14.496	-0.084	-0.093	-0.005	0.091	0.820	0.499	0.317	1.475	1.933	1.861	-0.155	-0.066	0.013
0.129	14.508	-0.082	-0.092	0.004	0.095	0.824	0.525	0.288	1.478	1.920	1.864	-0.155	-0.063	0.012
0.129	14.487	-0.079	-0.094	0.012	0.099	0.808	0.497	0.254	1.482	1.928	1.861	-0.154	-0.059	0.012
0.130	14.496	-0.075	-0.093	0.016	0.106	0.803	0.492	0.250	1.472	1.921	1.861	-0.151	-0.056	0.011
0.130	14.493	-0.072	-0.095	0.022	0.108	0.836	0.482	0.270	1.447	1.930	1.861	-0.150	-0.053	0.011
0.130	14.499	-0.070	-0.094	0.027	0.115	0.827	0.459	0.306	1.398	1.925	1.857	-0.147	-0.049	0.010
0.130	14.499	-0.067	-0.096	0.028	0.120	0.829	0.426	0.348	1.399	1.927	1.856	-0.147	-0.044	0.009
0.130	14.499	-0.067	-0.097	0.030	0.123	0.788	0.449	0.343	1.414	1.923	1.860	-0.145	-0.041	0.010
0.131	14.493	-0.064	-0.100	0.029	0.128	0.772	0.470	0.330	1.423	1.921	1.858	-0.143	-0.038	0.009
0.131	14.496	-0.061	-0.103	0.029	0.133	0.775	0.472	0.299	1.416	1.919	1.863	-0.142	-0.032	0.009
0.131	14.490	-0.057	-0.103	0.028	0.139	0.764	0.444	0.271	1.413	1.917	1.857	-0.137	-0.032	0.008
0.131	14.468	-0.052	-0.106	0.025	0.144	0.768	0.451	0.276	1.347	1.916	1.858	-0.140	-0.029	0.009
0.131	14.493	-0.047	-0.108	0.024	0.147	0.762	0.444	0.317	1.316	1.925	1.853	-0.140	-0.026	0.010
0.132	14.478	-0.042	-0.110	0.021	0.152	0.765	0.417	0.342	1.296	1.922	1.863	-0.137	-0.022	0.009
0.132	14.493	-0.040	-0.111	0.021	0.157	0.747	0.395	0.367	1.265	1.918	1.865	-0.137	-0.021	0.009
0.132	14.481	-0.038	-0.114	0.020	0.160	0.743	0.391	0.403	1.328	1.921	1.862	-0.135	-0.018	0.010
0.132	14.493	-0.036	-0.113	0.020	0.162	0.737	0.384	0.379	1.350	1.920	1.867	-0.135	-0.018	0.010
0.132	14.481	-0.034	-0.112	0.019	0.167	0.727	0.384	0.395	1.347	1.916	1.865	-0.134	-0.015	0.012
0.133	14.487	-0.035	-0.110	0.020	0.170	0.724	0.371	0.380	1.369	1.915	1.862	-0.129	-0.016	0.014
0.133	14.478	-0.029	-0.110	0.022	0.172	0.738	0.353	0.404	1.347	1.922	1.856	-0.135	-0.015	0.017
0.133	14.484	-0.028	-0.110	0.025	0.172	0.742	0.336	0.432	1.335	1.913	1.860	-0.132	-0.012	0.018
0.133	14.474	-0.023	-0.108	0.030	0.173	0.755	0.331	0.448	1.368	1.913	1.860	-0.130	-0.013	0.020
0.133	14.468	-0.020	-0.108	0.032	0.172	0.754	0.335	0.453	1.348	1.927	1.856	-0.132	-0.011	0.022
0.134	14.471	-0.018	-0.104	0.040	0.171	0.748	0.343	0.469	1.370	1.916	1.861	-0.130	-0.009	0.026
0.134	14.493	-0.017	-0.103	0.043	0.167	0.731	0.343	0.444	1.369	1.913	1.858	-0.130	-0.008	0.031
0.134	14.493	-0.019	-0.101	0.049	0.167	0.713	0.347	0.428	1.358	1.912	1.865	-0.129	-0.006	0.028
0.134	14.484	-0.019	-0.100	0.052	0.160	0.670	0.342	0.440	1.344	1.910	1.868	-0.129	-0.008	0.032
0.134	14.496	-0.019	-0.097	0.055	0.157	0.653	0.337	0.436	1.312	1.911	1.863	-0.127	-0.005	0.035
0.135	14.487	-0.023	-0.097	0.057	0.154	0.651	0.334	0.463	1.300	1.918	1.863	-0.128	-0.002	0.035
0.135	14.496	-0.022	-0.097	0.060	0.152	0.671	0.362	0.465	1.282	1.913	1.854	-0.128	0.002	0.039
0.135	14.484	-0.024	-0.096	0.061	0.151	0.675	0.376	0.473	1.288	1.908	1.859	-0.127	0.001	0.039
0.135	14.478	-0.025	-0.095	0.061	0.147	0.681	0.390	0.463	1.283	1.917	1.864	-0.127	-0.001	0.043
0.135	14.508	-0.025	-0.097	0.059	0.147	0.672	0.417	0.459	1.273	1.914	1.856	-0.125	0.003	0.043
0.136	14.502	-0.026	-0.097	0.055	0.145	0.659	0.425	0.443	1.232	1.915	1.858	-0.123	0.002	0.043
0.136	14.496	-0.029	-0.097	0.048	0.146	0.659	0.426	0.425	1.228	1.911	1.857	-0.122	0.002	0.045
0.136	14.502	-0.032	-0.098	0.040	0.146	0.656	0.444	0.422	1.237	1.906	1.863	-0.122	0.004	0.042
0.136	14.523	-0.036	-0.097	0.030	0.147	0.642	0.464	0.399	1.227	1.899	1.864	-0.121	0.004	0.044
0.136	14.505	-0.041	-0.100	0.020	0.146	0.679	0.465	0.397	1.251	1.905	1.867	-0.119	0.007	0.040
0.137	14.502	-0.045	-0.099	0.007	0.151	0.706	0.480	0.392	1.232	1.915	1.859	-0.118	0.009	0.037
0.137	14.523	-0.050	-0.101	-0.005	0.155	0.701	0.492	0.417	1.239	1.910	1.866	-0.118	0.007	0.041
0.137	14.520	-0.052	-0.096	-0.019	0.159	0.689	0.506	0.419	1.221	1.910	1.862	-0.116	0.008	0.038
0.137	14.523	-0.053	-0.096	-0.032	0.164	0.690	0.504	0.438	1.235	1.914	1.860	-0.114	0.008	0.041
0.137	14.514	-0.055	-0.093	-0.043	0.169	0.694	0.496	0.432	1.237	1.902	1.864	-0.116	0.009	0.035
0.138	14.545	-0.060	-0.089	-0.056	0.175	0.679	0.501	0.428	1.197	1.909	1.857	-0.115	0.008	0.035
0.138	14.536	-0.060	-0.086	-0.068	0.179	0.683	0.505	0.438	1.198	1.910	1.854	-0.113	0.007	0.033
0.138	14.517	-0.063	-0.084	-0.078	0.183	0.728	0.509	0.435	1.228	1.908	1.862	-0.112	0.007	0.031
0.138	14.526	-0.072	-0.080	-0.090	0.186	0.724	0.517	0.433	1.197	1.897	1.857	-0.109	0.007	0.030
0.138	14.520	-0.076	-0.077	-0.096	0.186	0.751	0.519	0.440	1.196	1.909	1.861	-0.112	0.000	0.029
0.139	14.542	-0.078	-0.077	-0.102	0.186	0.737	0.508	0.483	1.200	1.916	1.857	-0.113	0.002	0.030
0.139	14.532	-0.079	-0.071	-0.106	0.182	0.719	0.531	0.488	1.157	1.902	1.864	-0.113	0.001	0.025
0.139	14.526	-0.081	-0.070	-0.107	0.176	0.729	0.500	0.497	1.142	1.905	1.856	-0.111	0.001	0.027
0.139	14.551	-0.084	-0.067	-0.109	0.170	0.720	0.497	0.502	1.149	1.914	1.863	-0.108	-0.005	0.026
0.139	14.511	-0.084	-0.061	-0.107	0.160	0.727	0.502	0.506	1.168	1.905	1.866	-0.111	-0.009	0.028
0.140	14.532	-0.086	-0.060	-0.105	0.152	0.729	0.506	0.535	1.214	1.905	1.859	-0.111	-0.012	0.027
0.140	14.532	-0.088	-0.060	-0.099	0.140	0.732	0.509	0.540	1.233	1.911	1.862	-0.111	-0.015	0.028
0.140	14.542	-0.091	-0.056	-0.093	0.128	0.731	0.522	0.562	1.219	1.908	1.860	-0.113	-0.020	0.026
0.140	14.548	-0.093	-0.052	-0.084	0.116	0.715	0.534	0.601	1.225	1.909	1.864	-0.111	-0.023	0.026
0.140	14.545	-0.095	-0.052	-0.077	0.102	0.723	0.535	0.568	1.223	1.910	1.860	-0.111	-0.027	0.024
0.141	14.557	-0.096	-0.049	-0.068	0.090	0.716	0.519	0.561	1.204	1.911	1.859	-0.108	-0.032	0.022
0.141	14.551	-0.095	-0.051	-0.058	0.078	0.726	0.509	0.551	1.223	1.901	1.863	-0.108	-0.037	0.021
0.141	14.545	-0.097	-0.051	-0.050	0.067	0.739	0.500	0.533	1.249	1.907	1.850	-0.109	-0.039	0.020
0.141	14.554	-0.099	-0.050	-0.042	0.057	0.742	0.511	0.534	1.231	1.904	1.860	-0.107	-0.042	0.017
0.141	14.557	-0.101	-0.050	-0.031	0.047	0.742	0.493	0.545	1.210	1.907	1.857	-0.105	-0.047	0.017
0.142	14.563	-0.103	-0.049	-0.024	0.043	0.746	0.488	0.550	1.185	1.904	1.867	-0.105	-0.049	0.011
0.142	14.542	-0.105	-0.046	-0.014	0.037	0.738	0.485	0.590	1.168	1.907	1.866	-0.103	-0.052	0.010
0.142	14.563	-0.106	-0.046	-0.005	0.034	0.746	0.495	0.628	1.189	1.906	1.865	-0.102	-0.053	0.009
0.142	14.557	-0.105	-0.045	0.003	0.036	0.735	0.476	0.611	1.167	1.913	1.860	-0.102	-0.055	0.004
0.142	14.536	-0.106	-0.041	0.011	0.033	0.729	0.485	0.602	1.161	1.905	1.854	-0.101	-0.060	0.000
0.143	14.532	-0.106	-0.040	0.019	0.032	0.725	0.462	0.565	1.140	1.914	1.856	-0.102	-0.059	-0.004
0.143	14.548	-0.106	-0.038	0.025	0.038	0.728	0.460	0.575	1.120	1.907	1.856	-0.101	-0.060	-0.009
0.143	14.545	-0.108	-0.038	0.031	0.044	0.713	0.451	0.581	1.120	1.908	1.858	-0.099	-0.061	-0.008
0.143	14.517	-0.110	-0.037	0.036	0.049	0.715	0.453	0.578	1.135	1.909	1.862	-0.099	-0.059	-0.013
0.143	14.536	-0.110	-0.037	0.040	0.053	0.707	0.453	0.555	1.107	1.914	1.857	-0.098	-0.062	-0.015
0.144	14.542	-0.109	-0.038	0.043	0.062	0.703	0.434	0.544	1.118	1.907	1.856	-0.097	-0.059	-0.019
0.144	14.536	-0.109	-0.039	0.046	0.069	0.726	0.434	0.520	1.130	1.904	1.862	-0.097	-0.060	-0.021
0.144	14.526	-0.109	-0.041	0.048	0.077	0.723	0.428	0.502	1.119	1.906	1.861	-0.097	-0.058	-0.021
0.144	14.542	-0.108	-0.042	0.050	0.086	0.730	0.426	0.483	1.123	1.910	1.855	-0.099	-0.056	-0.023
0.144	14.554	-0.108	-0.045	0.051	0.092	0.741	0.417	0.453	1.141	1.910	1.856	-0.101	-0.055	-0.025
0.145	14.542	-0.110	-0.046	0.053	0.100	0.707	0.435	0.433	1.137	1.907	1.861	-0.100	-0.054	-0.029
0.145	14.517	-0.111	-0.048	0.053	0.105	0.683	0.432	0.439	1.134	1.915	1.859	-0.102	-0.054	-0.029
0.145	14.523	-0.109	-0.051	0.052	0.110	0.670	0.416	0.448	1.137	1.907	1.861	-0.104	-0.050	-0.029
0.145	14.520	-0.110	-0.052	0.050	0.114	0.665	0.420	0.456	1.152	1.905	1.862	-0.104	-0.047	-0.030
0.145	14.536	-0.108	-0.057	0.048	0.117	0.657	0.417	0.474	1.129	1.906	1.863	-0.105	-0.046	-0.028
0.146	14.511	-0.107	-0.059	0.051	0.118	0.650	0.422	0.494	1.117	1.902	1.856	-0.109	-0.042	-0.032
0.146	14.508	-0.106	-0.062	0.048	0.116	0.664	0.426	0.494	1.150	1.909	1.858	-0.111	-0.041	-0.031
0.146	14.514	-0.103	-0.066	0.051	0.113	0.676	0.444	0.476	1.179	1.915	1.861	-0.113	-0.039	-0.032
0.146	14.517	-0.099	-0.069	0.052	0.108	0.670	0.449	0.492	1.219	1.921	1.857	-0.117	-0.036	-0.031
0.146	14.511	-0.100	-0.069	0.054	0.103	0.669	0.483	0.471	1.278	1.913	1.862	-0.119	-0.035	-0.032
0.147	14.520	-0.101	-0.071	0.058	0.096	0.682	0.498	0.485	1.268	1.908	1.867	-0.121	-0.033	-0.033
0.147	14.511	-0.101	-0.069	0.061	0.088	0.679	0.486	0.500	1.263	1.914	1.857	-0.123	-0.032	-0.032
0.147	14.514	-0.098	-0.069	0.066	0.079	0.671	0.461	0.535	1.251	1.911	1.862	-0.127	-0.029	-0.036
0.147	14.505	-0.100	-0.068	0.071	0.070	0.681	0.484	0.540	1.233	1.906	1.860	-0.128	-0.028	-0.038
0.147	14.514	-0.099	-0.066	0.077	0.061	0.678	0.507	0.541	1.215	1.911	1.865	-0.127	-0.026	-0.038
0.148	14.505	-0.095	-0.065	0.081	0.053	0.672	0.502	0.543	1.236	1.915	1.866	-0.132	-0.024	-0.037
0.148	14.499	-0.094	-0.063	0.085	0.048	0.676	0.521	0.560	1.246	1.909	1.862	-0.130	-0.024	-0.038
0.148	14.499	-0.090	-0.065	0.089	0.043	0.676	0.531	0.571	1.236	1.910	1.865	-0.135	-0.023	-0.039
0.148	14.487	-0.088	-0.063	0.094	0.041	0.665	0.538	0.582	1.249	1.911	1.864	-0.141	-0.021	-0.039
0.148	14.474	-0.089	-0.060	0.096	0.037	0.650	0.544	0.592	1.234	1.918	1.863	-0.137	-0.020	-0.041
0.149	14.496	-0.084	-0.061	0.100	0.037	0.690	0.535	0.597	1.181	1.911	1.861	-0.140	-0.020	-0.039
0.149	14.496	-0.083	-0.062	0.101	0.036	0.682	0.516	0.585	1.196	1.901	1.859	-0.139	-0.018	-0.041
0.149	14.481	-0.079	-0.060	0.101	0.037	0.695	0.520	0.592	1.181	1.907	1.862	-0.140	-0.019	-0.042
0.149	14.487	-0.082	-0.064	0.102	0.039	0.702	0.507	0.572	1.197	1.906	1.864	-0.143	-0.015	-0.040
0.149	14.462	-0.078	-0.064	0.098	0.044	0.696	0.518	0.569	1.204	1.904	1.863	-0.142	-0.015	-0.040
0.150	14.478	-0.077	-0.064	0.097	0.048	0.667	0.532	0.581	1.189	1.904	1.862	-0.142	-0.015	-0.043
0.150	14.499	-0.075	-0.065	0.094	0.053	0.667	0.544	0.578	1.187	1.911	1.857	-0.143	-0.013	-0.042
0.150	14.484	-0.073	-0.068	0.088	0.059	0.662	0.555	0.579	1.159	1.905	1.864	-0.142	-0.012	-0.044
0.150	14.484	-0.071	-0.070	0.082	0.065	0.676	0.548	0.582	1.147	1.910	1.856	-0.144	-0.011	-0.046
0.150	14.490	-0.069	-0.072	0.074	0.068	0.680	0.533	0.563	1.148	1.904	1.860	-0.144	-0.010	-0.044
0.151	14.484	-0.065	-0.074	0.065	0.075	0.699	0.537	0.546	1.113	1.909	1.864	-0.145	-0.009	-0.042
0.151	14.487	-0.064	-0.075	0.054	0.078	0.702	0.532	0.542	1.142	1.896	1.867	-0.146	-0.007	-0.047
0.151	14.487	-0.061	-0.078	0.044	0.080	0.723	0.520	0.550	1.147	1.899	1.861	-0.146	-0.008	-0.047
0.151	14.499	-0.058	-0.079	0.033	0.080	0.719	0.531	0.558	1.127	1.908	1.856	-0.148	-0.004	-0.047
0.151	14.490	-0.057	-0.081	0.021	0.082	0.705	0.535	0.575	1.105	1.906	1.854	-0.148	-0.006	-0.051
0.152	14.481	-0.053	-0.083	0.007	0.081	0.718	0.518	0.578	1.102	1.903	1.860	-0.149	-0.007	-0.049
0.152	14.481	-0.052	-0.082	-0.003	0.079	0.738	0.517	0.573	1.111	1.902	1.860	-0.149	-0.006	-0.051
0.152	14.484	-0.048	-0.085	-0.014	0.077	0.756	0.516	0.563	1.123	1.916	1.860	-0.149	-0.007	-0.046
0.152	14.508	-0.045	-0.086	-0.026	0.074	0.779	0.525	0.562	1.167	1.898	1.858	-0.150	-0.007	-0.052
0.152	14.484	-0.042	-0.084	-0.035	0.072	0.797	0.510	0.563	1.198	1.908	1.854	-0.152	-0.009	-0.050
0.153	14.462	-0.039	-0.086	-0.045	0.067	0.799	0.514	0.562	1.213	1.900	1.853	-0.154	-0.009	-0.048
0.153	14.474	-0.038	-0.087	-0.055	0.062	0.787	0.509	0.574	1.189	1.902	1.855	-0.155	-0.011	-0.050
0.153	14.481	-0.037	-0.085	-0.064	0.059	0.788	0.509	0.558	1.177	1.906	1.862	-0.152	-0.014	-0.048
0.153	14.481	-0.037	-0.086	-0.068	0.056	0.781	0.485	0.570	1.181	1.898	1.860	-0.154	-0.014	-0.049
0.153	14.478	-0.034	-0.084	-0.073	0.052	0.796	0.476	0.577	1.189	1.904	1.859	-0.156	-0.016	-0.046
0.154	14.474	-0.035	-0.084	-0.077	0.050	0.808	0.472	0.534	1.184	1.904	1.863	-0.156	-0.016	-0.045
0.154	14.462	-0.033	-0.083	-0.081	0.047	0.837	0.456	0.494	1.225	1.906	1.861	-0.157	-0.021	-0.046
0.154	14.474	-0.031	-0.084	-0.081	0.047	0.849	0.454	0.466	1.246	1.897	1.855	-0.157	-0.021	-0.042
0.154	14.462	-0.030	-0.084	-0.082	0.046	0.863	0.454	0.469	1.237	1.890	1.858	-0.157	-0.020	-0.046
0.154	14.490	-0.031	-0.085	-0.085	0.046	0.861	0.454	0.516	1.214	1.900	1.861	-0.158	-0.022	-0.046
0.155	14.496	-0.030	-0.085	-0.085	0.049	0.852	0.453	0.541	1.201	1.896	1.862	-0.157	-0.024	-0.044
0.155	14.471	-0.029	-0.084	-0.087	0.051	0.853	0.457	0.553	1.202	1.906	1.864	-0.158	-0.026	-0.045
0.155	14.478	-0.031	-0.087	-0.087	0.053	0.849	0.440	0.545	1.195	1.899	1.854	-0.158	-0.026	-0.046
0.155	14.459	-0.034	-0.087	-0.084	0.055	0.853	0.419	0.512	1.216	1.894	1.858	-0.160	-0.026	-0.047
0.155	14.487	-0.033	-0.089	-0.083	0.057	0.848	0.404	0.496	1.223	1.892	1.861	-0.160	-0.027	-0.048
0.156	14.474	-0.033	-0.088	-0.081	0.060	0.851	0.380	0.496	1.226	1.900	1.860	-0.162	-0.027	-0.047
0.156	14.502	-0.038	-0.089	-0.082	0.062	0.846	0.385	0.496	1.229	1.894	1.853	-0.160	-0.028	-0.050
0.156	14.490	-0.038	-0.088	-0.080	0.065	0.826	0.369	0.508	1.202	1.894	1.855	-0.157	-0.029	-0.050
0.156	14.474	-0.042	-0.085	-0.082	0.066	0.831	0.385	0.524	1.168	1.891	1.857	-0.160	-0.030	-0.053
0.156	14.481	-0.045	-0.088	-0.081	0.070	0.835	0.379	0.502	1.149	1.894	1.861	-0.160	-0.031	-0.052
0.157	14.465	-0.047	-0.087	-0.080	0.072	0.836	0.387	0.495	1.157	1.896	1.858	-0.161	-0.033	-0.053
0.157	14.478	-0.052	-0.087	-0.080	0.073	0.839	0.356	0.473	1.155	1.888	1.861	-0.162	-0.032	-0.053
0.157	14.481	-0.056	-0.089	-0.081	0.075	0.853	0.353	0.456	1.177	1.904	1.859	-0.160	-0.034	-0.055
0.157	14.462	-0.059	-0.087	-0.082	0.076	0.837	0.347	0.447	1.191	1.893	1.861	-0.162	-0.036	-0.053
0.157	14.481	-0.062	-0.085	-0.081	0.077	0.811	0.330	0.456	1.193	1.896	1.859	-0.162	-0.035	-0.053
0.158	14.468	-0.064	-0.085	-0.079	0.078	0.795	0.324	0.489	1.174	1.894	1.856	-0.161	-0.040	-0.052
0.158	14.462	-0.064	-0.083	-0.080	0.079	0.775	0.311	0.496	1.179	1.892	1.862	-0.164	-0.042	-0.052
0.158	14.511	-0.071	-0.081	-0.076	0.078	0.771	0.315	0.499	1.161	1.894	1.858	-0.160	-0.042	-0.051
0.158	14.456	-0.072	-0.081	-0.079	0.078	0.775	0.311	0.492	1.163	1.898	1.862	-0.162	-0.046	-0.049
0.158	14.462	-0.077	-0.079	-0.079	0.080	0.756	0.313	0.474	1.150	1.895	1.861	-0.161	-0.046	-0.050
0.159	14.474	-0.083	-0.078	-0.078	0.078	0.729	0.319	0.486	1.203	1.896	1.856	-0.155	-0.050	-0.048
0.159	14.465	-0.083	-0.077	-0.077	0.080	0.727	0.318	0.462	1.251	1.898	1.856	-0.158	-0.051	-0.043
0.159	14.468	-0.090	-0.076	-0.075	0.081	0.681	0.324	0.451	1.265	1.890	1.856	-0.158	-0.050	-0.047
0.159	14.471	-0.089	-0.075	-0.073	0.079	0.678	0.327	0.432	1.271	1.894	1.857	-0.156	-0.055	-0.044
0.159	14.468	-0.091	-0.076	-0.072	0.074	0.648	0.344	0.439	1.265	1.884	1.855	-0.157	-0.051	-0.045
0.160	14.478	-0.093	-0.075	-0.070	0.076	0.647	0.355	0.466	1.277	1.896	1.855	-0.154	-0.053	-0.049
0.160	14.456	-0.094	-0.075	-0.067	0.076	0.638	0.340	0.482	1.283	1.892	1.858	-0.154	-0.055	-0.044
0.160	14.435	-0.097	-0.076	-0.064	0.071	0.629	0.332	0.472	1.304	1.892	1.854	-0.152	-0.054	-0.044
0.160	14.481	-0.100	-0.075	-0.062	0.065	0.605	0.325	0.453	1.314	1.896	1.856	-0.149	-0.055	-0.041
0.160	14.481	-0.103	-0.076	-0.058	0.065	0.593	0.311	0.453	1.321	1.887	1.851	-0.147	-0.054	-0.041
0.161	14.462	-0.106	-0.076	-0.055	0.061	0.575	0.323	0.461	1.322	1.896	1.848	-0.147	-0.055	-0.040
0.161	14.471	-0.111	-0.075	-0.051	0.059	0.550	0.324	0.454	1.307	1.897	1.852	-0.146	-0.053	-0.040
0.161	14.474	-0.112	-0.074	-0.049	0.054	0.583	0.342	0.459	1.277	1.905	1.853	-0.142	-0.053	-0.039
0.161	14.481	-0.111	-0.075	-0.046	0.050	0.587	0.366	0.458	1.284	1.889	1.852	-0.140	-0.052	-0.037
0.161	14.478	-0.113	-0.073	-0.043	0.050	0.586	0.365	0.477	1.276	1.884	1.860	-0.138	-0.049	-0.040
0.162	14.481	-0.113	-0.072	-0.040	0.047	0.584	0.365	0.486	1.240	1.892	1.849	-0.136	-0.049	-0.036
0.162	14.490	-0.114	-0.074	-0.039	0.047	0.581	0.338	0.481	1.273	1.893	1.851	-0.134	-0.046	-0.036
0.162	14.481	-0.117	-0.073	-0.038	0.047	0.573	0.356	0.445	1.271	1.897	1.853	-0.132	-0.044	-0.037
0.162	14.465	-0.120	-0.075	-0.035	0.049	0.551	0.362	0.411	1.262	1.893	1.857	-0.131	-0.042	-0.034
0.162	14.487	-0.123	-0.076	-0.033	0.052	0.544	0.368	0.393	1.277	1.898	1.861	-0.129	-0.039	-0.032
0.163	14.484	-0.125	-0.075	-0.032	0.054	0.549	0.375	0.368	1.252	1.892	1.853	-0.127	-0.038	-0.029
0.163	14.487	-0.127	-0.077	-0.031	0.061	0.579	0.387	0.398	1.246	1.893	1.851	-0.125	-0.035	-0.028
0.163	14.481	-0.124	-0.078	-0.030	0.068	0.570	0.381	0.401	1.227	1.898	1.860	-0.121	-0.034	-0.027
0.163	14.490	-0.122	-0.077	-0.028	0.076	0.581	0.387	0.408	1.225	1.897	1.857	-0.122	-0.032	-0.026
0.163	14.484	-0.125	-0.077	-0.029	0.087	0.595	0.397	0.399	1.226	1.888	1.851	-0.122	-0.030	-0.025
0.164	14.499	-0.122	-0.077	-0.030	0.095	0.592	0.387	0.378	1.258	1.894	1.849	-0.120	-0.028	-0.022
0.164	14.496	-0.123	-0.077	-0.029	0.105	0.603	0.379	0.353	1.266	1.889	1.852	-0.119	-0.024	-0.022
0.164	14.511	-0.124	-0.078	-0.031	0.114	0.574	0.390	0.352	1.271	1.893	1.848	-0.118	-0.022	-0.019
0.164	14.508	-0.126	-0.080	-0.032	0.126	0.587	0.409	0.367	1.222	1.893	1.864	-0.115	-0.022	-0.018
0.164	14.487	-0.124	-0.081	-0.033	0.135	0.587	0.379	0.408	1.179	1.902	1.858	-0.117	-0.021	-0.016
0.165	14.517	-0.122	-0.083	-0.033	0.141	0.589	0.375	0.405	1.151	1.899	1.854	-0.116	-0.019	-0.013
0.165	14.496	-0.120	-0.088	-0.035	0.146	0.609	0.363	0.397	1.181	1.893	1.852	-0.115	-0.017	-0.013
0.165	14.511	-0.116	-0.086	-0.035	0.150	0.634	0.367	0.355	1.198	1.894	1.853	-0.117	-0.015	-0.011
0.165	14.517	-0.113	-0.089	-0.036	0.155	0.650	0.360	0.325	1.247	1.883	1.847	-0.117	-0.015	-0.010
0.165	14.514	-0.115	-0.087	-0.039	0.157	0.680	0.369	0.328	1.263	1.894	1.858	-0.117	-0.012	-0.011
0.166	14.520	-0.114	-0.088	-0.040	0.156	0.670	0.348	0.350	1.249	1.896	1.856	-0.117	-0.007	-0.010
0.166	14.517	-0.113	-0.089	-0.039	0.154	0.668	0.365	0.373	1.223	1.909	1.851	-0.117	-0.007	-0.008
0.166	14.517	-0.113	-0.089	-0.042	0.150	0.653	0.360	0.423	1.178	1.898	1.848	-0.121	-0.006	-0.006
0.166	14.536	-0.113	-0.088	-0.041	0.146	0.650	0.356	0.426	1.176	1.890	1.847	-0.122	-0.001	-0.004
0.166	14.536	-0.112	-0.088	-0.042	0.137	0.635	0.369	0.398	1.208	1.886	1.850	-0.120	-0.000	-0.004
0.167	14.523	-0.109	-0.090	-0.042	0.129	0.638	0.383	0.367	1.240	1.893	1.851	-0.125	0.003	-0.003
0.167	14.539	-0.105	-0.091	-0.040	0.119	0.664	0.390	0.347	1.317	1.902	1.852	-0.122	0.005	-0.002
0.167	14.529	-0.100	-0.091	-0.039	0.109	0.677	0.396	0.366	1.326	1.905	1.852	-0.125	0.007	0.001
0.167	14.505	-0.101	-0.093	-0.036	0.099	0.713	0.402	0.404	1.264	1.903	1.854	-0.125	0.013	0.001
0.167	14.517	-0.098	-0.094	-0.033	0.088	0.700	0.404	0.445	1.198	1.902	1.852	-0.127	0.013	0.004
0.168	14.536	-0.099	-0.094	-0.033	0.077	0.687	0.401	0.452	1.193	1.894	1.848	-0.129	0.018	0.000
0.168	14.511	-0.099	-0.095	-0.026	0.068	0.681	0.421	0.420	1.202	1.898	1.852	-0.129	0.020	0.000
0.168	14.526	-0.097	-0.095	-0.028	0.061	0.670	0.401	0.344	1.269	1.891	1.845	-0.131	0.025	0.004
0.168	14.520	-0.095	-0.094	-0.025	0.053	0.668	0.392	0.308	1.314	1.902	1.851	-0.129	0.027	0.002
0.168	14.514	-0.090	-0.094	-0.021	0.044	0.672	0.384	0.289	1.347	1.892	1.849	-0.131	0.031	0.007
0.169	14.523	-0.087	-0.093	-0.019	0.043	0.668	0.395	0.308	1.354	1.897	1.847	-0.132	0.036	0.005
0.169	14.508	-0.081	-0.092	-0.016	0.037	0.653	0.372	0.375	1.306	1.896	1.856	-0.131	0.035	0.007
0.169	14.502	-0.078	-0.094	-0.013	0.035	0.637	0.366	0.436	1.266	1.886	1.852	-0.132	0.042	0.008
0.169	14.511	-0.075	-0.093	-0.011	0.032	0.595	0.360	0.466	1.240	1.897	1.852	-0.131	0.041	0.008
0.169	14.523	-0.070	-0.094	-0.012	0.032	0.609	0.340	0.423	1.278	1.897	1.847	-0.131	0.045	0.010
0.170	14.523	-0.070	-0.095	-0.011	0.033	0.583	0.335	0.368	1.316	1.895	1.854	-0.131	0.047	0.007
0.170	14.514	-0.068	-0.097	-0.013	0.031	0.582	0.324	0.313	1.365	1.888	1.850	-0.130	0.047	0.010
0.170	14.511	-0.065	-0.096	-0.016	0.034	0.574	0.322	0.323	1.348	1.893	1.856	-0.130	0.050	0.006
0.170	14.514	-0.061	-0.098	-0.021	0.036	0.560	0.331	0.375	1.276	1.897	1.853	-0.129	0.052	0.007
0.170	14.514	-0.057	-0.098	-0.025	0.039	0.547	0.336	0.417	1.233	1.881	1.855	-0.129	0.053	0.007
0.171	14.502	-0.054	-0.097	-0.032	0.040	0.531	0.331	0.424	1.176	1.889	1.846	-0.127	0.055	0.005
0.171	14.520	-0.048	-0.100	-0.040	0.042	0.532	0.317	0.405	1.154	1.889	1.853	-0.127	0.054	0.005
0.171	14.529	-0.048	-0.099	-0.049	0.046	0.543	0.316	0.352	1.186	1.889	1.848	-0.123	0.057	0.001
0.171	14.514	-0.044	-0.100	-0.060	0.045	0.538	0.324	0.300	1.237	1.892	1.847	-0.126	0.056	0.002
0.171	14.517	-0.040	-0.101	-0.068	0.045	0.525	0.322	0.289	1.287	1.884	1.849	-0.124	0.057	-0.001
0.172	14.517	-0.036	-0.103	-0.078	0.046	0.546	0.348	0.307	1.290	1.890	1.857	-0.124	0.058	-0.004
0.172	14.508	-0.033	-0.104	-0.088	0.048	0.546	0.348	0.339	1.285	1.891	1.848	-0.123	0.055	-0.004
0.172	14.508	-0.031	-0.107	-0.098	0.048	0.550	0.359	0.367	1.274	1.896	1.855	-0.123	0.055	-0.009
0.172	14.523	-0.027	-0.108	-0.104	0.049	0.559	0.386	0.391	1.310	1.886	1.839	-0.124	0.053	-0.011
0.172	14.517	-0.021	-0.111	-0.113	0.050	0.553	0.389	0.356	1.329	1.893	1.843	-0.125	0.052	-0.011
0.173	14.529	-0.021	-0.112	-0.120	0.051	0.560	0.385	0.315	1.358	1.899	1.850	-0.123	0.051	-0.016
0.173	14.517	-0.019	-0.112	-0.126	0.053	0.566	0.375	0.296	1.382	1.888	1.845	-0.121	0.049	-0.019
0.173	14.523	-0.017	-0.111	-0.130	0.055	0.577	0.408	0.288	1.373	1.899	1.854	-0.126	0.048	-0.021
0.173	14.517	-0.016	-0.109	-0.135	0.056	0.586	0.433	0.331	1.347	1.887	1.841	-0.127	0.046	-0.024
0.173	14.517	-0.013	-0.107	-0.139	0.058	0.609	0.463	0.372	1.345	1.888	1.845	-0.124	0.044	-0.027
0.174	14.496	-0.011	-0.105	-0.143	0.058	0.634	0.488	0.376	1.329	1.887	1.840	-0.127	0.041	-0.029
0.174	14.502	-0.010	-0.103	-0.145	0.059	0.667	0.492	0.390	1.346	1.891	1.853	-0.126	0.040	-0.032
0.174	14.499	-0.008	-0.101	-0.145	0.060	0.677	0.494	0.340	1.377	1.883	1.849	-0.126	0.035	-0.032
0.174	14.511	-0.006	-0.099	-0.149	0.061	0.682	0.485	0.342	1.414	1.890	1.845	-0.130	0.029	-0.034
0.174	14.517	-0.007	-0.098	-0.149	0.062	0.681	0.477	0.341	1.402	1.889	1.850	-0.129	0.029	-0.037
0.175	14.511	-0.006	-0.098	-0.148	0.062	0.676	0.496	0.347	1.387	1.886	1.853	-0.128	0.024	-0.040
0.175	14.517	-0.009	-0.096	-0.152	0.062	0.676	0.513	0.359	1.363	1.878	1.844	-0.130	0.021	-0.042
0.175	14.526	-0.010	-0.094	-0.150	0.062	0.693	0.506	0.373	1.343	1.880	1.852	-0.125	0.018	-0.044
0.175	14.517	-0.010	-0.093	-0.150	0.061	0.739	0.522	0.379	1.361	1.883	1.847	-0.130	0.014	-0.046
0.175	14.523	-0.010	-0.092	-0.150	0.059	0.739	0.533	0.353	1.354	1.881	1.848	-0.129	0.013	-0.048
0.176	14.532	-0.011	-0.090	-0.150	0.059	0.778	0.516	0.319	1.355	1.882	1.846	-0.129	0.005	-0.048
0.176	14.511	-0.012	-0.085	-0.151	0.057	0.789	0.523	0.294	1.371	1.879	1.848	-0.131	0.002	-0.055
0.176	14.526	-0.013	-0.085	-0.151	0.052	0.779	0.531	0.305	1.367	1.877	1.841	-0.131	-0.004	-0.058
0.176	14.545	-0.017	-0.083	-0.153	0.045	0.777	0.521	0.320	1.333	1.893	1.842	-0.129	-0.006	-0.062
0.176	14.532	-0.021	-0.083	-0.154	0.045	0.783	0.532	0.347	1.320	1.879	1.850	-0.128	-0.010	-0.069
0.177	14.539	-0.026	-0.082	-0.154	0.042	0.779	0.537	0.344	1.347	1.884	1.841	-0.127	-0.013	-0.069
0.177	14.551	-0.031	-0.082	-0.154	0.038	0.781	0.559	0.357	1.360	1.881	1.848	-0.125	-0.017	-0.075
0.177	14.560	-0.034	-0.081	-0.156	0.031	0.785	0.533	0.350	1.347	1.886	1.841	-0.125	-0.020	-0.079
0.177	14.587	-0.039	-0.080	-0.157	0.028	0.810	0.523	0.347	1.361	1.878	1.839	-0.125	-0.021	-0.085
0.177	14.560	-0.040	-0.078	-0.156	0.026	0.803	0.511	0.351	1.374	1.880	1.846	-0.123	-0.025	-0.089
0.178	14.560	-0.045	-0.076	-0.160	0.023	0.780	0.498	0.348	1.359	1.880	1.846	-0.121	-0.027	-0.090
0.178	14.575	-0.048	-0.074	-0.161	0.018	0.797	0.507	0.341	1.380	1.882	1.846	-0.121	-0.031	-0.097
0.178	14.563	-0.054	-0.074	-0.161	0.015	0.807	0.520	0.328	1.402	1.884	1.845	-0.122	-0.035	-0.097
0.178	14.569	-0.060	-0.070	-0.162	0.012	0.797	0.501	0.328	1.421	1.875	1.842	-0.121	-0.036	-0.108
0.178	14.603	-0.062	-0.068	-0.162	0.006	0.795	0.499	0.335	1.430	1.884	1.842	-0.118	-0.041	-0.109
0.179	14.603	-0.067	-0.067	-0.165	0.003	0.801	0.478	0.335	1.469	1.885	1.843	-0.124	-0.041	-0.113
0.179	14.594	-0.073	-0.064	-0.168	0.003	0.795	0.488	0.343	1.474	1.882	1.839	-0.118	-0.044	-0.116
0.179	14.590	-0.076	-0.061	-0.169	-0.001	0.799	0.474	0.378	1.454	1.878	1.842	-0.119	-0.050	-0.115
0.179	14.600	-0.081	-0.062	-0.169	-0.002	0.773	0.476	0.395	1.472	1.870	1.850	-0.116	-0.050	-0.120
0.179	14.603	-0.085	-0.060	-0.171	-0.004	0.753	0.487	0.404	1.491	1.877	1.854	-0.119	-0.054	-0.120
0.180	14.606	-0.091	-0.061	-0.173	-0.007	0.756	0.474	0.404	1.477	1.882	1.846	-0.119	-0.054	-0.122
0.180	14.606	-0.094	-0.058	-0.173	-0.011	0.713	0.472	0.383	1.476	1.884	1.847	-0.119	-0.057	-0.123
0.180	14.615	-0.100	-0.058	-0.174	-0.013	0.680	0.458	0.376	1.508	1.884	1.839	-0.119	-0.058	-0.123
0.180	14.603	-0.106	-0.057	-0.175	-0.017	0.698	0.476	0.375	1.488	1.880	1.842	-0.119	-0.060	-0.124
0.180	14.612	-0.107	-0.056	-0.173	-0.021	0.735	0.441	0.377	1.469	1.875	1.839	-0.119	-0.063	-0.123
0.181	14.612	-0.109	-0.055	-0.171	-0.025	0.784	0.421	0.392	1.464	1.878	1.843	-0.120	-0.064	-0.123
0.181	14.630	-0.114	-0.055	-0.167	-0.030	0.820	0.436	0.408	1.435	1.875	1.839	-0.119	-0.066	-0.122
0.181	14.636	-0.118	-0.053	-0.163	-0.033	0.826	0.435	0.431	1.434	1.877	1.842	-0.117	-0.066	-0.121
0.181	14.624	-0.122	-0.050	-0.158	-0.037	0.772	0.445	0.441	1.467	1.874	1.845	-0.118	-0.067	-0.121
0.181	14.630	-0.125	-0.052	-0.153	-0.040	0.687	0.433	0.438	1.501	1.874	1.838	-0.120	-0.067	-0.118
0.182	14.630	-0.130	-0.052	-0.144	-0.042	0.559	0.421	0.456	1.537	1.877	1.845	-0.115	-0.067	-0.119
0.182	14.621	-0.132	-0.052	-0.139	-0.044	0.513	0.433	0.433	1.557	1.885	1.839	-0.116	-0.069	-0.119
0.182	14.633	-0.139	-0.052	-0.131	-0.046	0.577	0.439	0.433	1.551	1.880	1.843	-0.113	-0.067	-0.117
0.182	14.627	-0.141	-0.053	-0.121	-0.045	0.644	0.443	0.433	1.568	1.880	1.848	-0.111	-0.066	-0.115
0.182	14.612	-0.144	-0.052	-0.114	-0.044	0.724	0.450	0.439	1.535	1.878	1.836	-0.113	-0.066	-0.114
0.183	14.624	-0.148	-0.052	-0.105	-0.043	0.761	0.441	0.454	1.511	1.869	1.842	-0.111	-0.065	-0.112
0.183	14.621	-0.149	-0.053	-0.095	-0.042	0.743	0.435	0.451	1.506	1.880	1.841	-0.109	-0.065	-0.108
0.183	14.606	-0.153	-0.053	-0.089	-0.037	0.684	0.421	0.439	1.536	1.876	1.846	-0.108	-0.063	-0.107
0.183	14.621	-0.156	-0.053	-0.082	-0.034	0.608	0.414	0.421	1.512	1.879	1.839	-0.104	-0.062	-0.104
0.183	14.630	-0.156	-0.055	-0.073	-0.028	0.597	0.425	0.398	1.478	1.883	1.842	-0.106	-0.059	-0.100
0.184	14.633	-0.157	-0.057	-0.069	-0.025	0.583	0.428	0.391	1.496	1.888	1.846	-0.101	-0.057	-0.097
0.184	14.624	-0.158	-0.058	-0.064	-0.017	0.644	0.449	0.413	1.469	1.883	1.842	-0.102	-0.055	-0.093
0.184	14.624	-0.157	-0.062	-0.059	-0.010	0.717	0.448	0.428	1.434	1.884	1.844	-0.102	-0.053	-0.090
0.184	14.636	-0.157	-0.065	-0.056	-0.006	0.741	0.478	0.466	1.403	1.884	1.847	-0.100	-0.053	-0.085
0.184	14.648	-0.157	-0.067	-0.055	0.001	0.749	0.473	0.424	1.393	1.888	1.845	-0.100	-0.047	-0.084
0.185	14.621	-0.157	-0.070	-0.052	0.009	0.702	0.478	0.386	1.390	1.887	1.845	-0.100	-0.048	-0.083
0.185	14.621	-0.159	-0.073	-0.051	0.016	0.653	0.508	0.348	1.379	1.872	1.835	-0.101	-0.045	-0.077
0.185	14.615	-0.158	-0.075	-0.048	0.021	0.627	0.531	0.305	1.392	1.881	1.841	-0.102	-0.040	-0.073
0.185	14.618	-0.159	-0.077	-0.048	0.024	0.631	0.537	0.329	1.369	1.885	1.843	-0.100	-0.040	-0.068
0.185	14.612	-0.156	-0.080	-0.046	0.030	0.669	0.537	0.369	1.366	1.886	1.837	-0.100	-0.035	-0.067
0.186	14.621	-0.154	-0.084	-0.043	0.034	0.705	0.519	0.419	1.342	1.884	1.835	-0.100	-0.038	-0.061
0.186	14.627	-0.152	-0.087	-0.042	0.036	0.739	0.498	0.439	1.360	1.894	1.829	-0.100	-0.031	-0.058
0.186	14.624	-0.149	-0.087	-0.040	0.039	0.760	0.492	0.435	1.371	1.884	1.840	-0.101	-0.031	-0.057
0.186	14.621	-0.150	-0.090	-0.038	0.044	0.755	0.516	0.409	1.371	1.892	1.837	-0.102	-0.030	-0.050
0.186	14.603	-0.150	-0.092	-0.036	0.045	0.735	0.534	0.387	1.387	1.884	1.843	-0.103	-0.027	-0.050
0.187	14.606	-0.150	-0.093	-0.030	0.044	0.711	0.559	0.383	1.404	1.882	1.836	-0.104	-0.027	-0.044
0.187	14.621	-0.151	-0.093	-0.026	0.046	0.715	0.554	0.422	1.414	1.885	1.840	-0.106	-0.023	-0.042
0.187	14.621	-0.151	-0.092	-0.021	0.048	0.731	0.543	0.448	1.407	1.883	1.840	-0.105	-0.022	-0.037
0.187	14.612	-0.148	-0.090	-0.014	0.047	0.737	0.494	0.458	1.381	1.880	1.837	-0.105	-0.021	-0.032
0.187	14.603	-0.142	-0.090	-0.007	0.046	0.749	0.469	0.478	1.340	1.883	1.844	-0.104	-0.022	-0.031
0.188	14.633	-0.140	-0.091	0.001	0.045	0.780	0.453	0.470	1.333	1.885	1.841	-0.105	-0.020	-0.024
0.188	14.621	-0.138	-0.091	0.009	0.046	0.773	0.435	0.453	1.334	1.881	1.838	-0.103	-0.018	-0.024
0.188	14.615	-0.136	-0.090	0.017	0.046	0.735	0.466	0.446	1.347	1.885	1.844	-0.101	-0.018	-0.021
0.188	14.612	-0.135	-0.092	0.026	0.047	0.713	0.476	0.432	1.372	1.877	1.846	-0.103	-0.016	-0.018
0.188	14.600	-0.135	-0.093	0.032	0.049	0.725	0.456	0.428	1.359	1.882	1.837	-0.099	-0.015	-0.014
0.189	14.633	-0.134	-0.093	0.039	0.049	0.744	0.429	0.440	1.347	1.884	1.843	-0.099	-0.016	-0.010
0.189	14.606	-0.133	-0.093	0.048	0.051	0.762	0.384	0.471	1.361	1.876	1.838	-0.099	-0.012	-0.009
0.189	14.624	-0.133	-0.092	0.054	0.053	0.772	0.389	0.478	1.321	1.876	1.839	-0.096	-0.013	-0.004
0.189	14.609	-0.129	-0.092	0.061	0.056	0.769	0.409	0.474	1.321	1.871	1.834	-0.094	-0.010	-0.003
0.189	14.621	-0.128	-0.092	0.065	0.059	0.763	0.397	0.451	1.333	1.879	1.836	-0.093	-0.009	-0.001
0.190	14.609	-0.122	-0.094	0.070	0.064	0.732	0.427	0.425	1.336	1.880	1.841	-0.092	-0.008	0.001
0.190	14.597	-0.122	-0.095	0.072	0.070	0.731	0.412	0.413	1.359	1.873	1.836	-0.089	-0.008	0.001
0.190	14.612	-0.119	-0.098	0.073	0.074	0.742	0.404	0.419	1.363	1.881	1.838	-0.086	-0.007	0.002
0.190	14.600	-0.116	-0.103	0.073	0.080	0.767	0.378	0.420	1.365	1.871	1.836	-0.083	-0.007	0.003
0.190	14.615	-0.115	-0.103	0.070	0.086	0.795	0.363	0.448	1.348	1.879	1.832	-0.080	-0.007	0.002
0.191	14.609	-0.111	-0.108	0.068	0.093	0.811	0.365	0.422	1.374	1.882	1.831	-0.080	-0.004	0.000
0.191	14.609	-0.107	-0.109	0.064	0.100	0.802	0.392	0.439	1.373	1.877	1.834	-0.076	-0.004	-0.001
0.191	14.609	-0.103	-0.110	0.056	0.106	0.797	0.403	0.441	1.374	1.883	1.836	-0.076	-0.005	-0.004
0.191	14.590	-0.099	-0.111	0.050	0.112	0.773	0.400	0.402	1.355	1.882	1.842	-0.073	-0.002	-0.005
0.191	14.587	-0.097	-0.110	0.041	0.117	0.767	0.414	0.434	1.347	1.872	1.833	-0.065	-0.003	-0.009
0.192	14.590	-0.090	-0.112	0.030	0.122	0.802	0.384	0.444	1.328	1.882	1.839	-0.069	-0.001	-0.010
0.192	14.600	-0.089	-0.111	0.021	0.125	0.849	0.376	0.494	1.354	1.872	1.840	-0.066	-0.001	-0.014
0.192	14.581	-0.086	-0.110	0.013	0.128	0.884	0.361	0.502	1.363	1.870	1.841	-0.066	-0.001	-0.019
0.192	14.581	-0.081	-0.110	0.002	0.130	0.906	0.377	0.493	1.397	1.877	1.841	-0.063	-0.000	-0.021
0.192	14.590	-0.077	-0.108	-0.009	0.132	0.871	0.386	0.460	1.398	1.881	1.840	-0.062	-0.001	-0.020
0.193	14.584	-0.073	-0.106	-0.015	0.136	0.841	0.401	0.432	1.418	1.874	1.842	-0.061	0.001	-0.025
0.193	14.575	-0.069	-0.106	-0.023	0.132	0.789	0.403	0.426	1.421	1.876	1.840	-0.060	-0.003	-0.026
0.193	14.581	-0.064	-0.105	-0.031	0.128	0.784	0.408	0.437	1.405	1.872	1.830	-0.060	-0.001	-0.031
0.193	14.572	-0.060	-0.103	-0.035	0.129	0.801	0.383	0.464	1.389	1.880	1.830	-0.060	0.000	-0.036
0.193	14.590	-0.057	-0.102	-0.038	0.128	0.833	0.376	0.484	1.397	1.876	1.840	-0.059	-0.001	-0.035
0.194	14.557	-0.055	-0.101	-0.042	0.121	0.859	0.375	0.498	1.401	1.873	1.844	-0.059	0.001	-0.039
0.194	14.587	-0.053	-0.100	-0.042	0.114	0.866	0.379	0.516	1.409	1.874	1.836	-0.058	0.001	-0.039
0.194	14.597	-0.049	-0.098	-0.045	0.114	0.836	0.397	0.492	1.417	1.873	1.839	-0.059	0.003	-0.043
0.194	14.584	-0.048	-0.099	-0.042	0.107	0.804	0.379	0.458	1.435	1.871	1.845	-0.057	0.001	-0.043
0.194	14.572	-0.046	-0.098	-0.040	0.102	0.765	0.383	0.420	1.437	1.866	1.840	-0.058	0.001	-0.045
0.195	14.560	-0.045	-0.097	-0.039	0.100	0.754	0.380	0.419	1.409	1.867	1.835	-0.057	0.001	-0.045
0.195	14.597	-0.044	-0.096	-0.036	0.098	0.781	0.373	0.424	1.354	1.876	1.836	-0.057	0.002	-0.045
0.195	14.581	-0.044	-0.097	-0.034	0.096	0.792	0.381	0.469	1.324	1.868	1.834	-0.058	0.003	-0.050
0.195	14.560	-0.043	-0.099	-0.031	0.095	0.803	0.386	0.481	1.293	1.872	1.829	-0.058	0.002	-0.048
0.195	14.572	-0.043	-0.097	-0.028	0.097	0.816	0.398	0.457	1.293	1.869	1.838	-0.059	0.002	-0.053
0.196	14.566	-0.040	-0.098	-0.026	0.098	0.811	0.379	0.447	1.300	1.869	1.837	-0.060	0.001	-0.051
0.196	14.584	-0.042	-0.097	-0.025	0.100	0.753	0.369	0.408	1.308	1.872	1.833	-0.061	0.002	-0.049
0.196	14.581	-0.040	-0.096	-0.024	0.102	0.712	0.347	0.380	1.312	1.868	1.843	-0.061	0.001	-0.052
0.196	14.575	-0.039	-0.093	-0.025	0.105	0.706	0.348	0.365	1.325	1.868	1.842	-0.062	-0.000	-0.049
0.196	14.597	-0.042	-0.092	-0.024	0.109	0.719	0.357	0.413	1.316	1.869	1.833	-0.064	-0.000	-0.056
0.197	14.563	-0.042	-0.090	-0.027	0.112	0.729	0.375	0.465	1.269	1.872	1.841	-0.064	-0.003	-0.057
0.197	14.566	-0.045	-0.090	-0.032	0.115	0.729	0.380	0.505	1.226	1.874	1.843	-0.065	-0.004	-0.060
0.197	14.569	-0.045	-0.086	-0.034	0.118	0.739	0.387	0.505	1.226	1.869	1.837	-0.066	-0.005	-0.061
0.197	14.578	-0.051	-0.087	-0.039	0.123	0.716	0.373	0.466	1.203	1.881	1.838	-0.068	-0.010	-0.062
0.197	14.566	-0.052	-0.085	-0.045	0.124	0.679	0.351	0.429	1.237	1.869	1.838	-0.070	-0.008	-0.067
0.198	14.578	-0.055	-0.085	-0.054	0.124	0.637	0.371	0.398	1.236	1.864	1.838	-0.071	-0.011	-0.070
0.198	14.566	-0.057	-0.086	-0.061	0.127	0.639	0.352	0.409	1.262	1.875	1.838	-0.071	-0.013	-0.069
0.198	14.575	-0.060	-0.087	-0.071	0.127	0.650	0.366	0.448	1.244	1.870	1.838	-0.074	-0.015	-0.072
0.198	14.581	-0.062	-0.083	-0.080	0.126	0.669	0.377	0.478	1.222	1.872	1.833	-0.077	-0.017	-0.073
0.198	14.575	-0.065	-0.083	-0.090	0.125	0.682	0.400	0.524	1.205	1.865	1.840	-0.077	-0.019	-0.070
0.199	14.590	-0.068	-0.083	-0.099	0.121	0.675	0.372	0.497	1.195	1.866	1.836	-0.078	-0.021	-0.075
0.199	14.557	-0.069	-0.080	-0.109	0.119	0.684	0.374	0.476	1.227	1.872	1.837	-0.082	-0.022	-0.074
0.199	14.566	-0.074	-0.079	-0.117	0.115	0.642	0.344	0.416	1.227	1.874	1.836	-0.083	-0.024	-0.076
0.199	14.590	-0.074	-0.078	-0.127	0.109	0.640	0.371	0.407	1.263	1.871	1.833	-0.087	-0.026	-0.074
0.199	14.566	-0.076	-0.078	-0.140	0.108	0.627	0.381	0.451	1.256	1.869	1.834	-0.086	-0.027	-0.073
0.200	14.566	-0.078	-0.077	-0.145	0.102	0.640	0.384	0.477	1.256	1.877	1.832	-0.089	-0.031	-0.071
0.200	14.587	-0.079	-0.077	-0.150	0.099	0.652	0.402	0.526	1.226	1.867	1.840	-0.091	-0.032	-0.068
0.200	14.566	-0.080	-0.077	-0.160	0.094	0.663	0.397	0.554	1.209	1.866	1.830	-0.093	-0.032	-0.067
0.200	14.566	-0.083	-0.077	-0.166	0.090	0.680	0.385	0.513	1.210	1.863	1.838	-0.097	-0.032	-0.065
0.200	14.575	-0.086	-0.077	-0.168	0.087	0.672	0.374	0.501	1.265	1.873	1.841	-0.097	-0.032	-0.063
0.201	14.566	-0.087	-0.077	-0.171	0.084	0.662	0.403	0.494	1.296	1.872	1.835	-0.101	-0.032	-0.059
0.201	14.578	-0.090	-0.075	-0.171	0.079	0.646	0.415	0.498	1.309	1.869	1.832	-0.102	-0.030	-0.057
0.201	14.590	-0.092	-0.074	-0.171	0.076	0.659	0.444	0.516	1.283	1.876	1.840	-0.105	-0.034	-0.050
0.201	14.569	-0.092	-0.072	-0.168	0.073	0.665	0.471	0.558	1.275	1.866	1.833	-0.108	-0.033	-0.051
0.201	14.578	-0.094	-0.071	-0.164	0.066	0.694	0.484	0.605	1.240	1.867	1.830	-0.109	-0.034	-0.048
0.202	14.575	-0.097	-0.069	-0.160	0.058	0.711	0.486	0.629	1.211	1.872	1.836	-0.111	-0.033	-0.046
0.202	14.569	-0.096	-0.071	-0.154	0.055	0.727	0.468	0.599	1.191	1.870	1.834	-0.111	-0.032	-0.045
0.202	14.566	-0.098	-0.069	-0.148	0.052	0.722	0.465	0.558	1.204	1.867	1.828	-0.112	-0.032	-0.041
0.202	14.560	-0.098	-0.070	-0.140	0.047	0.724	0.482	0.502	1.227	1.879	1.840	-0.112	-0.030	-0.038
0.202	14.587	-0.101	-0.071	-0.134	0.039	0.762	0.496	0.481	1.221	1.874	1.839	-0.113	-0.033	-0.036
0.203	14.587	-0.100	-0.071	-0.126	0.039	0.739	0.510	0.454	1.178	1.874	1.832	-0.113	-0.027	-0.036
0.203	14.578	-0.100	-0.072	-0.119	0.038	0.756	0.547	0.450	1.130	1.872	1.831	-0.114	-0.028	-0.031
0.203	14.578	-0.100	-0.073	-0.114	0.034	0.755	0.551	0.472	1.089	1.874	1.833	-0.113	-0.027	-0.031
0.203	14.578	-0.100	-0.074	-0.107	0.032	0.768	0.569	0.446	1.080	1.863	1.835	-0.113	-0.026	-0.029
0.203	14.584	-0.100	-0.076	-0.103	0.031	0.766	0.560	0.411	1.071	1.873	1.835	-0.114	-0.025	-0.027
0.204	14.584	-0.099	-0.075	-0.097	0.030	0.750	0.557	0.368	1.103	1.875	1.838	-0.115	-0.024	-0.028
0.204	14.560	-0.100	-0.076	-0.094	0.028	0.737	0.568	0.363	1.136	1.868	1.834	-0.115	-0.024	-0.024
0.204	14.575	-0.104	-0.078	-0.091	0.030	0.740	0.587	0.362	1.153	1.870	1.835	-0.114	-0.021	-0.022
0.204	14.554	-0.102	-0.079	-0.090	0.029	0.743	0.598	0.374	1.150	1.877	1.834	-0.112	-0.020	-0.021
0.204	14.566	-0.104	-0.079	-0.089	0.029	0.722	0.609	0.407	1.138	1.872	1.830	-0.114	-0.019	-0.018
0.205	14.563	-0.105	-0.081	-0.088	0.030	0.726	0.603	0.408	1.112	1.871	1.831	-0.115	-0.018	-0.018
0.205	14.575	-0.102	-0.081	-0.086	0.030	0.732	0.617	0.426	1.093	1.878	1.833	-0.115	-0.015	-0.015
0.205	14.566	-0.098	-0.081	-0.087	0.029	0.735	0.607	0.404	1.092	1.873	1.834	-0.115	-0.013	-0.015
0.205	14.569	-0.094	-0.080	-0.084	0.026	0.726	0.619	0.386	1.091	1.873	1.840	-0.115	-0.012	-0.013
0.205	14.578	-0.093	-0.080	-0.084	0.024	0.718	0.635	0.383	1.106	1.871	1.839	-0.117	-0.010	-0.009
0.206	14.575	-0.094	-0.077	-0.083	0.020	0.692	0.634	0.405	1.119	1.868	1.838	-0.118	-0.006	-0.012
0.206	14.569	-0.090	-0.078	-0.081	0.015	0.686	0.675	0.426	1.134	1.872	1.837	-0.119	-0.005	-0.011
0.206	14.560	-0.094	-0.077	-0.078	0.010	0.666	0.670	0.429	1.112	1.870	1.836	-0.117	-0.002	-0.009
0.206	14.557	-0.092	-0.073	-0.075	0.004	0.647	0.664	0.464	1.084	1.874	1.833	-0.120	0.001	-0.009
0.206	14.575	-0.091	-0.073	-0.072	-0.003	0.639	0.676	0.446	1.082	1.876	1.839	-0.124	0.005	-0.007
0.207	14.563	-0.090	-0.070	-0.068	-0.010	0.623	0.691	0.449	1.078	1.877	1.840	-0.120	0.007	-0.007
0.207	14.563	-0.089	-0.069	-0.063	-0.016	0.621	0.693	0.426	1.086	1.882	1.833	-0.123	0.010	-0.006
0.207	14.554	-0.087	-0.068	-0.056	-0.023	0.613	0.695	0.407	1.117	1.880	1.831	-0.122	0.013	-0.006
0.207	14.551	-0.086	-0.066	-0.051	-0.027	0.614	0.710	0.424	1.132	1.880	1.836	-0.124	0.016	-0.006
0.207	14.560	-0.086	-0.066	-0.043	-0.032	0.606	0.707	0.437	1.154	1.876	1.832	-0.124	0.023	-0.005
0.208	14.551	-0.084	-0.064	-0.035	-0.036	0.580	0.715	0.457	1.166	1.877	1.832	-0.123	0.023	-0.005
0.208	14.560	-0.080	-0.061	-0.032	-0.039	0.571	0.728	0.490	1.162	1.869	1.837	-0.126	0.022	-0.006
0.208	14.566	-0.079	-0.063	-0.025	-0.042	0.579	0.715	0.509	1.135	1.876	1.835	-0.124	0.028	-0.001
0.208	14.597	-0.076	-0.059	-0.018	-0.045	0.566	0.713	0.498	1.141	1.877	1.828	-0.123	0.029	-0.002
0.208	14.554	-0.075	-0.055	-0.011	-0.044	0.554	0.727	0.509	1.152	1.877	1.834	-0.122	0.033	-0.005
0.209	14.560	-0.074	-0.056	-0.007	-0.044	0.549	0.722	0.511	1.149	1.876	1.829	-0.120	0.035	-0.003
0.209	14.587	-0.073	-0.055	-0.004	-0.045	0.538	0.734	0.498	1.120	1.871	1.836	-0.119	0.038	-0.003
0.209	14.551	-0.071	-0.055	0.000	-0.042	0.546	0.729	0.529	1.131	1.872	1.836	-0.118	0.041	-0.003
0.209	14.554	-0.072	-0.055	0.001	-0.043	0.540	0.747	0.540	1.126	1.867	1.830	-0.116	0.044	-0.006
0.209	14.554	-0.067	-0.054	0.003	-0.040	0.545	0.752	0.544	1.087	1.869	1.835	-0.116	0.046	-0.006
0.210	14.569	-0.063	-0.056	0.003	-0.037	0.565	0.761	0.534	1.054	1.869	1.833	-0.113	0.047	-0.004
0.210	14.569	-0.062	-0.056	-0.001	-0.032	0.585	0.760	0.514	1.067	1.866	1.836	-0.113	0.052	-0.010
0.210	14.563	-0.059	-0.056	-0.005	-0.033	0.597	0.757	0.481	1.059	1.873	1.837	-0.110	0.052	-0.012
0.210	14.560	-0.055	-0.057	-0.011	-0.032	0.582	0.751	0.454	1.059	1.864	1.838	-0.108	0.053	-0.014
0.210	14.551	-0.053	-0.057	-0.020	-0.027	0.587	0.742	0.426	1.081	1.856	1.837	-0.105	0.055	-0.019
0.211	14.566	-0.052	-0.058	-0.031	-0.020	0.574	0.738	0.425	1.048	1.869	1.831	-0.103	0.056	-0.021
0.211	14.548	-0.049	-0.059	-0.042	-0.017	0.593	0.753	0.451	1.038	1.873	1.828	-0.101	0.059	-0.022
0.211	14.557	-0.047	-0.059	-0.056	-0.014	0.616	0.749	0.475	1.025	1.874	1.833	-0.098	0.058	-0.027
0.211	14.572	-0.042	-0.058	-0.071	-0.006	0.631	0.759	0.465	0.992	1.879	1.827	-0.098	0.062	-0.031
0.211	14.563	-0.038	-0.058	-0.089	0.001	0.638	0.785	0.463	0.992	1.869	1.833	-0.096	0.059	-0.033
0.212	14.554	-0.034	-0.057	-0.105	0.009	0.622	0.784	0.440	1.023	1.865	1.830	-0.092	0.063	-0.037
0.212	14.551	-0.032	-0.058	-0.121	0.015	0.641	0.780	0.426	1.044	1.871	1.831	-0.091	0.061	-0.040
0.212	14.566	-0.026	-0.058	-0.136	0.024	0.657	0.762	0.435	1.059	1.871	1.827	-0.091	0.061	-0.041
0.212	14.575	-0.023	-0.056	-0.149	0.032	0.682	0.743	0.477	1.055	1.864	1.825	-0.089	0.062	-0.047
0.212	14.557	-0.022	-0.056	-0.164	0.036	0.717	0.749	0.502	1.035	1.864	1.826	-0.087	0.060	-0.046
0.213	14.554	-0.019	-0.055	-0.175	0.045	0.779	0.740	0.513	1.063	1.871	1.837	-0.087	0.062	-0.050
0.213	14.566	-0.016	-0.052	-0.184	0.051	0.799	0.746	0.499	1.070	1.871	1.829	-0.084	0.059	-0.052
0.213	14.560	-0.014	-0.052	-0.191	0.057	0.753	0.746	0.482	1.067	1.864	1.828	-0.084	0.058	-0.051
0.213	14.529	-0.011	-0.049	-0.195	0.063	0.687	0.755	0.473	1.087	1.867	1.834	-0.081	0.058	-0.055
0.213	14.560	-0.008	-0.047	-0.198	0.065	0.647	0.747	0.438	1.096	1.877	1.833	-0.080	0.056	-0.054
0.214	14.569	-0.004	-0.043	-0.198	0.070	0.646	0.739	0.458	1.115	1.874	1.834	-0.079	0.055	-0.056
0.214	14.539	-0.002	-0.040	-0.198	0.072	0.692	0.727	0.488	1.105	1.863	1.826	-0.078	0.053	-0.058
0.214	14.557	-0.004	-0.038	-0.194	0.074	0.761	0.699	0.498	1.112	1.859	1.830	-0.076	0.051	-0.060
0.214	14.569	-0.003	-0.036	-0.190	0.072	0.824	0.691	0.521	1.112	1.869	1.831	-0.076	0.050	-0.061
0.214	14.554	-0.004	-0.033	-0.184	0.069	0.873	0.682	0.519	1.095	1.869	1.826	-0.076	0.049	-0.062
0.215	14.566	-0.006	-0.033	-0.177	0.066	0.849	0.674	0.508	1.104	1.864	1.827	-0.070	0.046	-0.063
0.215	14.554	-0.005	-0.033	-0.171	0.062	0.800	0.686	0.468	1.111	1.863	1.842	-0.071	0.042	-0.062
0.215	14.551	-0.007	-0.030	-0.163	0.055	0.742	0.696	0.439	1.098	1.862	1.836	-0.070	0.039	-0.067
0.215	14.554	-0.006	-0.032	-0.155	0.050	0.730	0.704	0.429	1.079	1.862	1.831	-0.068	0.038	-0.069
0.215	14.551	-0.004	-0.029	-0.149	0.044	0.749	0.725	0.427	1.060	1.861	1.828	-0.067	0.035	-0.071
0.216	14.566	-0.007	-0.029	-0.142	0.039	0.790	0.737	0.450	1.038	1.865	1.821	-0.066	0.033	-0.072
0.216	14.536	-0.008	-0.028	-0.138	0.035	0.834	0.757	0.435	1.034	1.859	1.827	-0.064	0.029	-0.076
0.216	14.557	-0.009	-0.028	-0.135	0.029	0.845	0.775	0.407	1.046	1.867	1.829	-0.066	0.029	-0.077
0.216	14.569	-0.013	-0.029	-0.134	0.026	0.823	0.780	0.416	1.066	1.861	1.828	-0.063	0.022	-0.078
0.216	14.560	-0.017	-0.028	-0.133	0.024	0.792	0.790	0.385	1.075	1.866	1.825	-0.064	0.017	-0.080
0.217	14.545	-0.022	-0.030	-0.131	0.020	0.739	0.792	0.357	1.081	1.868	1.828	-0.062	0.016	-0.078
0.217	14.569	-0.026	-0.030	-0.131	0.020	0.723	0.785	0.365	1.058	1.864	1.826	-0.060	0.012	-0.084
0.217	14.569	-0.027	-0.032	-0.136	0.019	0.728	0.774	0.374	1.065	1.855	1.829	-0.064	0.010	-0.085
0.217	14.569	-0.030	-0.031	-0.139	0.020	0.741	0.788	0.414	1.034	1.855	1.839	-0.057	0.007	-0.088
0.217	14.557	-0.032	-0.032	-0.144	0.020	0.753	0.791	0.424	1.006	1.862	1.833	-0.059	0.004	-0.089
0.218	14.548	-0.034	-0.032	-0.149	0.022	0.757	0.800	0.412	1.025	1.863	1.831	-0.060	-0.000	-0.089
0.218	14.560	-0.039	-0.030	-0.157	0.024	0.739	0.801	0.385	1.008	1.857	1.834	-0.060	0.001	-0.088
0.218	14.572	-0.044	-0.028	-0.163	0.027	0.727	0.810	0.369	1.005	1.855	1.835	-0.060	-0.002	-0.093
0.218	14.566	-0.050	-0.030	-0.170	0.029	0.688	0.786	0.359	0.986	1.865	1.831	-0.061	-0.008	-0.091
0.218	14.581	-0.056	-0.029	-0.181	0.027	0.658	0.772	0.344	1.039	1.868	1.826	-0.063	-0.009	-0.099
0.219	14.563	-0.062	-0.025	-0.187	0.029	0.635	0.785	0.366	1.043	1.853	1.822	-0.063	-0.012	-0.097
0.219	14.563	-0.065	-0.026	-0.195	0.033	0.615	0.761	0.369	1.075	1.858	1.822	-0.062	-0.013	-0.093
0.219	14.587	-0.067	-0.026	-0.201	0.028	0.603	0.773	0.393	1.106	1.865	1.827	-0.064	-0.015	-0.097
0.219	14.563	-0.070	-0.026	-0.206	0.023	0.607	0.763	0.413	1.124	1.858	1.819	-0.067	-0.017	-0.097
0.219	14.597	-0.070	-0.025	-0.211	0.022	0.593	0.755	0.411	1.132	1.874	1.832	-0.068	-0.016	-0.098
0.220	14.572	-0.075	-0.025	-0.216	0.019	0.594	0.757	0.432	1.193	1.859	1.826	-0.067	-0.022	-0.097
0.220	14.584	-0.080	-0.027	-0.219	0.012	0.573	0.769	0.424	1.211	1.862	1.827	-0.069	-0.023	-0.098
0.220	14.594	-0.086	-0.028	-0.222	0.006	0.572	0.779	0.415	1.203	1.865	1.834	-0.070	-0.025	-0.098
0.220	14.587	-0.090	-0.027	-0.224	0.001	0.584	0.798	0.422	1.214	1.862	1.830	-0.070	-0.028	-0.098
0.220	14.590	-0.096	-0.026	-0.224	-0.004	0.601	0.793	0.440	1.181	1.868	1.834	-0.072	-0.028	-0.102
0.221	14.606	-0.097	-0.025	-0.223	-0.014	0.578	0.781	0.493	1.138	1.855	1.826	-0.075	-0.031	-0.100
0.221	14.587	-0.101	-0.024	-0.223	-0.022	0.583	0.781	0.513	1.100	1.861	1.821	-0.076	-0.032	-0.104
0.221	14.584	-0.103	-0.025	-0.219	-0.030	0.614	0.774	0.537	1.099	1.867	1.829	-0.077	-0.034	-0.105
0.221	14.600	-0.107	-0.024	-0.215	-0.037	0.585	0.760	0.517	1.124	1.856	1.828	-0.079	-0.035	-0.102
0.221	14.584	-0.109	-0.024	-0.208	-0.048	0.580	0.760	0.523	1.134	1.855	1.823	-0.079	-0.036	-0.105
0.222	14.578	-0.112	-0.024	-0.202	-0.057	0.599	0.760	0.512	1.150	1.858	1.822	-0.081	-0.038	-0.104
0.222	14.597	-0.116	-0.024	-0.192	-0.063	0.601	0.765	0.531	1.144	1.860	1.825	-0.081	-0.039	-0.106
0.222	14.600	-0.118	-0.022	-0.184	-0.072	0.618	0.779	0.571	1.076	1.857	1.823	-0.083	-0.041	-0.108
0.222	14.597	-0.124	-0.024	-0.174	-0.078	0.617	0.757	0.584	1.047	1.859	1.823	-0.082	-0.044	-0.108
0.222	14.581	-0.124	-0.024	-0.164	-0.082	0.639	0.742	0.579	1.035	1.861	1.816	-0.084	-0.046	-0.111
0.223	14.587	-0.124	-0.024	-0.154	-0.086	0.652	0.753	0.540	1.065	1.864	1.820	-0.084	-0.049	-0.109
0.223	14.603	-0.127	-0.023	-0.144	-0.086	0.651	0.736	0.505	1.111	1.859	1.819	-0.083	-0.049	-0.110
0.223	14.597	-0.128	-0.025	-0.136	-0.086	0.656	0.753	0.489	1.148	1.866	1.827	-0.085	-0.051	-0.113
0.223	14.594	-0.131	-0.023	-0.129	-0.085	0.651	0.746	0.493	1.165	1.868	1.818	-0.087	-0.052	-0.113
0.223	14.621	-0.134	-0.023	-0.121	-0.082	0.644	0.736	0.555	1.166	1.868	1.824	-0.086	-0.054	-0.114
0.224	14.584	-0.134	-0.022	-0.116	-0.079	0.662	0.703	0.593	1.157	1.864	1.827	-0.087	-0.055	-0.115
0.224	14.603	-0.137	-0.022	-0.111	-0.075	0.675	0.718	0.591	1.137	1.864	1.825	-0.087	-0.057	-0.115
0.224	14.606	-0.137	-0.024	-0.107	-0.069	0.682	0.712	0.570	1.104	1.853	1.824	-0.087	-0.058	-0.115
0.224	14.578	-0.137	-0.028	-0.109	-0.065	0.692	0.707	0.488	1.094	1.860	1.821	-0.089	-0.058	-0.117
0.224	14.581	-0.139	-0.029	-0.106	-0.060	0.695	0.736	0.419	1.082	1.867	1.825	-0.087	-0.062	-0.118
0.225	14.609	-0.139	-0.032	-0.113	-0.055	0.701	0.741	0.400	1.050	1.870	1.820	-0.091	-0.062	-0.118
0.225	14.587	-0.140	-0.035	-0.118	-0.050	0.680	0.755	0.425	1.010	1.862	1.832	-0.090	-0.063	-0.120
0.225	14.597	-0.140	-0.036	-0.122	-0.047	0.678	0.755	0.459	0.987	1.868	1.826	-0.092	-0.065	-0.121
0.225	14.609	-0.143	-0.038	-0.127	-0.042	0.684	0.767	0.520	0.998	1.867	1.824	-0.094	-0.063	-0.119
0.225	14.615	-0.141	-0.040	-0.135	-0.042	0.662	0.755	0.529	0.991	1.861	1.818	-0.094	-0.065	-0.120
0.226	14.618	-0.143	-0.042	-0.142	-0.040	0.689	0.766	0.510	1.022	1.875	1.829	-0.097	-0.065	-0.121
0.226	14.621	-0.142	-0.045	-0.145	-0.043	0.678	0.759	0.480	1.099	1.871	1.818	-0.095	-0.066	-0.120
0.226	14.627	-0.141	-0.045	-0.148	-0.046	0.667	0.783	0.473	1.177	1.862	1.818	-0.098	-0.066	-0.121
0.226	14.627	-0.140	-0.046	-0.151	-0.053	0.655	0.786	0.505	1.159	1.857	1.820	-0.099	-0.065	-0.122
0.226	14.642	-0.139	-0.045	-0.154	-0.059	0.658	0.801	0.529	1.196	1.860	1.818	-0.099	-0.066	-0.120
0.227	14.627	-0.137	-0.046	-0.151	-0.064	0.647	0.788	0.572	1.226	1.865	1.825	-0.102	-0.064	-0.124
0.227	14.621	-0.137	-0.048	-0.152	-0.075	0.660	0.788	0.628	1.245	1.875	1.825	-0.104	-0.066	-0.123
0.227	14.624	-0.135	-0.046	-0.149	-0.087	0.672	0.780	0.618	1.259	1.873	1.818	-0.104	-0.064	-0.122
0.227	14.645	-0.136	-0.046	-0.147	-0.095	0.684	0.783	0.582	1.273	1.865	1.817	-0.104	-0.061	-0.124
0.227	14.655	-0.135	-0.044	-0.141	-0.104	0.683	0.796	0.541	1.277	1.860	1.817	-0.106	-0.060	-0.120
0.228	14.639	-0.134	-0.042	-0.132	-0.114	0.674	0.810	0.531	1.298	1.870	1.817	-0.108	-0.057	-0.120
0.228	14.630	-0.131	-0.041	-0.124	-0.122	0.654	0.812	0.513	1.313	1.871	1.815	-0.107	-0.055	-0.118
0.228	14.658	-0.130	-0.039	-0.116	-0.129	0.623	0.787	0.530	1.319	1.873	1.819	-0.107	-0.051	-0.120
0.228	14.651	-0.126	-0.038	-0.104	-0.134	0.663	0.802	0.563	1.340	1.870	1.820	-0.108	-0.050	-0.117
0.228	14.639	-0.125	-0.040	-0.094	-0.136	0.676	0.784	0.570	1.342	1.872	1.820	-0.108	-0.047	-0.114
0.229	14.658	-0.121	-0.035	-0.082	-0.137	0.701	0.791	0.565	1.320	1.865	1.822	-0.108	-0.042	-0.118
0.229	14.655	-0.120	-0.034	-0.071	-0.135	0.719	0.798	0.541	1.329	1.867	1.818	-0.109	-0.037	-0.113
0.229	14.658	-0.118	-0.036	-0.060	-0.131	0.731	0.796	0.494	1.322	1.856	1.821	-0.108	-0.033	-0.117
0.229	14.655	-0.115	-0.036	-0.049	-0.125	0.723	0.819	0.444	1.319	1.867	1.824	-0.107	-0.029	-0.113
0.229	14.667	-0.115	-0.039	-0.041	-0.116	0.713	0.803	0.424	1.355	1.856	1.818	-0.106	-0.024	-0.111
0.230	14.645	-0.112	-0.040	-0.034	-0.103	0.720	0.796	0.421	1.340	1.861	1.820	-0.105	-0.019	-0.111
0.230	14.661	-0.109	-0.041	-0.028	-0.091	0.715	0.790	0.454	1.323	1.862	1.820	-0.101	-0.014	-0.108
0.230	14.655	-0.106	-0.044	-0.021	-0.077	0.751	0.800	0.506	1.342	1.853	1.815	-0.104	-0.009	-0.108
0.230	14.636	-0.101	-0.047	-0.018	-0.063	0.760	0.797	0.538	1.331	1.865	1.817	-0.103	-0.005	-0.106
0.230	14.661	-0.097	-0.048	-0.017	-0.049	0.776	0.814	0.523	1.330	1.871	1.816	-0.102	0.000	-0.106
0.231	14.655	-0.092	-0.049	-0.017	-0.036	0.779	0.808	0.496	1.325	1.861	1.818	-0.101	0.003	-0.105
0.231	14.670	-0.087	-0.051	-0.019	-0.025	0.780	0.803	0.465	1.338	1.872	1.816	-0.100	0.006	-0.102
0.231	14.648	-0.083	-0.050	-0.022	-0.014	0.768	0.792	0.449	1.355	1.872	1.815	-0.093	0.009	-0.101
0.231	14.661	-0.079	-0.052	-0.028	-0.004	0.768	0.773	0.463	1.344	1.870	1.810	-0.097	0.013	-0.096
0.231	14.661	-0.075	-0.053	-0.034	0.002	0.767	0.736	0.483	1.353	1.857	1.817	-0.096	0.014	-0.097
0.232	14.645	-0.072	-0.056	-0.041	0.009	0.784	0.729	0.494	1.367	1.858	1.811	-0.093	0.017	-0.094
0.232	14.655	-0.066	-0.057	-0.049	0.017	0.785	0.727	0.481	1.384	1.863	1.813	-0.093	0.020	-0.091
0.232	14.667	-0.061	-0.062	-0.059	0.021	0.778	0.714	0.458	1.380	1.869	1.817	-0.089	0.021	-0.088
0.232	14.679	-0.054	-0.061	-0.066	0.026	0.802	0.724	0.433	1.381	1.861	1.813	-0.089	0.022	-0.084
0.232	14.685	-0.051	-0.061	-0.076	0.030	0.764	0.736	0.428	1.378	1.857	1.804	-0.086	0.021	-0.080
0.233	14.667	-0.044	-0.061	-0.086	0.035	0.752	0.750	0.422	1.384	1.861	1.804	-0.084	0.021	-0.078
0.233	14.682	-0.040	-0.061	-0.094	0.036	0.753	0.728	0.433	1.392	1.855	1.807	-0.084	0.025	-0.074
0.233	14.685	-0.036	-0.060	-0.101	0.040	0.735	0.739	0.476	1.398	1.860	1.818	-0.080	0.027	-0.070
0.233	14.682	-0.033	-0.058	-0.111	0.046	0.722	0.739	0.516	1.403	1.861	1.811	-0.082	0.024	-0.067
0.233	14.679	-0.031	-0.056	-0.120	0.049	0.723	0.727	0.518	1.411	1.852	1.817	-0.079	0.026	-0.064
0.234	14.685	-0.030	-0.055	-0.126	0.053	0.714	0.734	0.496	1.437	1.859	1.819	-0.077	0.024	-0.060
0.234	14.700	-0.027	-0.056	-0.132	0.055	0.707	0.719	0.509	1.425	1.860	1.812	-0.075	0.026	-0.057
0.234	14.703	-0.024	-0.054	-0.138	0.060	0.725	0.711	0.508	1.399	1.868	1.816	-0.070	0.026	-0.054
0.234	14.700	-0.020	-0.054	-0.145	0.065	0.734	0.707	0.470	1.383	1.859	1.815	-0.068	0.027	-0.052
0.234	14.713	-0.017	-0.056	-0.147	0.068	0.747	0.712	0.501	1.417	1.866	1.811	-0.067	0.027	-0.049
0.235	14.725	-0.015	-0.055	-0.149	0.074	0.766	0.711	0.509	1.420	1.858	1.821	-0.067	0.031	-0.047
0.235	14.716	-0.014	-0.054	-0.151	0.079	0.768	0.716	0.514	1.429	1.845	1.811	-0.065	0.029	-0.046
0.235	14.700	-0.013	-0.053	-0.149	0.078	0.763	0.737	0.500	1.426	1.854	1.808	-0.061	0.027	-0.041
0.235	14.716	-0.013	-0.057	-0.148	0.082	0.750	0.742	0.473	1.422	1.860	1.810	-0.060	0.030	-0.041
0.235	14.725	-0.014	-0.054	-0.145	0.083	0.731	0.735	0.470	1.417	1.855	1.812	-0.057	0.028	-0.040
0.236	14.728	-0.016	-0.053	-0.141	0.083	0.715	0.727	0.470	1.421	1.853	1.804	-0.055	0.026	-0.037
0.236	14.719	-0.017	-0.055	-0.137	0.084	0.722	0.710	0.464	1.406	1.860	1.811	-0.052	0.030	-0.037
0.236	14.728	-0.017	-0.054	-0.134	0.085	0.706	0.710	0.448	1.443	1.858	1.803	-0.051	0.029	-0.034
0.236	14.740	-0.015	-0.054	-0.129	0.084	0.707	0.722	0.453	1.441	1.862	1.802	-0.051	0.030	-0.034
0.236	14.746	-0.017	-0.054	-0.124	0.084	0.707	0.715	0.466	1.408	1.861	1.813	-0.047	0.032	-0.029
0.237	14.764	-0.018	-0.055	-0.121	0.087	0.724	0.719	0.459	1.437	1.851	1.811	-0.045	0.030	-0.028
0.237	14.734	-0.022	-0.056	-0.116	0.090	0.732	0.731	0.424	1.397	1.852	1.820	-0.043	0.028	-0.026
0.237	14.749	-0.025	-0.056	-0.111	0.096	0.749	0.728	0.421	1.382	1.857	1.813	-0.042	0.027	-0.024
0.237	14.752	-0.028	-0.058	-0.108	0.098	0.735	0.712	0.426	1.372	1.853	1.805	-0.041	0.027	-0.025
0.237	14.755	-0.030	-0.057	-0.103	0.100	0.739	0.704	0.436	1.374	1.861	1.807	-0.041	0.024	-0.023
0.238	14.783	-0.032	-0.057	-0.103	0.105	0.735	0.702	0.446	1.393	1.855	1.806	-0.035	0.024	-0.023
0.238	14.792	-0.033	-0.057	-0.102	0.111	0.768	0.705	0.441	1.407	1.849	1.804	-0.033	0.020	-0.021
0.238	14.771	-0.036	-0.057	-0.103	0.116	0.767	0.717	0.427	1.438	1.852	1.809	-0.033	0.019	-0.019
0.238	14.789	-0.038	-0.056	-0.104	0.120	0.741	0.724	0.416	1.455	1.856	1.809	-0.032	0.018	-0.024
0.238	14.764	-0.037	-0.052	-0.108	0.124	0.781	0.737	0.417	1.451	1.861	1.805	-0.030	0.013	-0.021
0.239	14.777	-0.041	-0.056	-0.110	0.128	0.776	0.719	0.459	1.448	1.852	1.810	-0.027	0.015	-0.024
0.239	14.777	-0.045	-0.052	-0.115	0.132	0.811	0.719	0.461	1.457	1.853	1.815	-0.026	0.010	-0.030
0.239	14.792	-0.050	-0.054	-0.121	0.135	0.820	0.701	0.450	1.490	1.851	1.813	-0.025	0.008	-0.026
0.239	14.786	-0.054	-0.051	-0.124	0.137	0.835	0.728	0.460	1.525	1.848	1.805	-0.021	0.004	-0.030
0.239	14.786	-0.057	-0.049	-0.131	0.138	0.851	0.716	0.453	1.530	1.854	1.812	-0.023	0.002	-0.029
0.240	14.801	-0.059	-0.048	-0.133	0.136	0.866	0.749	0.456	1.563	1.864	1.807	-0.024	-0.001	-0.035
0.240	14.804	-0.061	-0.046	-0.135	0.133	0.870	0.752	0.474	1.563	1.852	1.816	-0.022	-0.003	-0.038
0.240	14.801	-0.064	-0.045	-0.138	0.129	0.883	0.752	0.520	1.580	1.861	1.807	-0.022	-0.005	-0.042
0.240	14.798	-0.067	-0.043	-0.137	0.122	0.889	0.750	0.562	1.577	1.852	1.809	-0.019	-0.008	-0.046
0.240	14.819	-0.072	-0.040	-0.137	0.115	0.894	0.763	0.595	1.585	1.857	1.812	-0.019	-0.010	-0.050
0.241	14.810	-0.074	-0.037	-0.136	0.106	0.896	0.759	0.606	1.642	1.859	1.814	-0.018	-0.014	-0.054
0.241	14.807	-0.080	-0.036	-0.134	0.097	0.911	0.764	0.604	1.671	1.858	1.812	-0.015	-0.014	-0.059
0.241	14.841	-0.084	-0.036	-0.128	0.087	0.916	0.751	0.573	1.701	1.860	1.807	-0.015	-0.013	-0.062
0.241	14.825	-0.085	-0.032	-0.120	0.075	0.917	0.776	0.573	1.712	1.857	1.806	-0.012	-0.018	-0.066
0.241	14.835	-0.086	-0.033	-0.115	0.066	0.932	0.764	0.605	1.720	1.862	1.809	-0.013	-0.019	-0.069
0.242	14.838	-0.089	-0.034	-0.109	0.054	0.954	0.742	0.654	1.704	1.870	1.811	-0.012	-0.021	-0.071
0.242	14.816	-0.090	-0.034	-0.095	0.042	0.949	0.718	0.677	1.701	1.858	1.805	-0.013	-0.024	-0.074
0.242	14.828	-0.094	-0.034	-0.086	0.031	0.949	0.705	0.692	1.688	1.862	1.810	-0.012	-0.021	-0.077
0.242	14.838	-0.099	-0.034	-0.077	0.020	0.954	0.700	0.680	1.636	1.853	1.812	-0.007	-0.024	-0.078
0.242	14.813	-0.103	-0.035	-0.068	0.011	0.935	0.698	0.640	1.649	1.863	1.802	-0.010	-0.022	-0.080
0.243	14.816	-0.109	-0.034	-0.058	0.003	0.914	0.724	0.620	1.633	1.868	1.801	-0.009	-0.023	-0.080
0.243	14.816	-0.111	-0.034	-0.049	-0.004	0.925	0.743	0.608	1.631	1.857	1.807	-0.007	-0.022	-0.081
0.243	14.832	-0.113	-0.034	-0.044	-0.007	0.907	0.759	0.580	1.605	1.857	1.811	-0.005	-0.021	-0.081
0.243	14.832	-0.115	-0.036	-0.039	-0.009	0.890	0.755	0.568	1.555	1.856	1.814	-0.006	-0.023	-0.077
0.243	14.825	-0.116	-0.036	-0.033	-0.006	0.904	0.750	0.596	1.503	1.861	1.806	-0.006	-0.021	-0.079
0.244	14.807	-0.117	-0.036	-0.029	-0.004	0.873	0.739	0.602	1.481	1.860	1.808	-0.004	-0.023	-0.077
0.244	14.807	-0.118	-0.038	-0.029	-0.003	0.864	0.737	0.575	1.506	1.863	1.814	-0.005	-0.022	-0.075
0.244	14.813	-0.122	-0.041	-0.028	0.008	0.847	0.717	0.547	1.480	1.854	1.810	-0.006	-0.024	-0.074
0.244	14.813	-0.122	-0.044	-0.026	0.019	0.849	0.708	0.498	1.519	1.857	1.813	-0.007	-0.022	-0.071
0.244	14.801	-0.125	-0.046	-0.028	0.027	0.837	0.705	0.487	1.525	1.863	1.810	-0.009	-0.020	-0.071
0.245	14.804	-0.126	-0.048	-0.032	0.033	0.831	0.720	0.498	1.505	1.864	1.811	-0.007	-0.021	-0.066
0.245	14.841	-0.125	-0.049	-0.035	0.046	0.822	0.732	0.542	1.480	1.865	1.815	-0.009	-0.020	-0.064
0.245	14.804	-0.124	-0.049	-0.039	0.057	0.817	0.714	0.581	1.478	1.864	1.814	-0.010	-0.020	-0.061
0.245	14.810	-0.124	-0.046	-0.044	0.065	0.797	0.696	0.607	1.490	1.867	1.810	-0.013	-0.020	-0.059
0.245	14.792	-0.121	-0.047	-0.047	0.073	0.787	0.701	0.628	1.504	1.867	1.807	-0.016	-0.018	-0.055
0.246	14.822	-0.124	-0.046	-0.052	0.079	0.761	0.693	0.608	1.534	1.861	1.805	-0.017	-0.016	-0.052
0.246	14.828	-0.121	-0.044	-0.051	0.086	0.734	0.683	0.603	1.560	1.868	1.807	-0.021	-0.015	-0.052
0.246	14.822	-0.122	-0.043	-0.057	0.086	0.724	0.672	0.609	1.577	1.866	1.808	-0.025	-0.015	-0.046
0.246	14.801	-0.122	-0.043	-0.061	0.087	0.727	0.670	0.631	1.566	1.865	1.801	-0.028	-0.013	-0.041
0.246	14.792	-0.118	-0.043	-0.061	0.084	0.734	0.658	0.672	1.541	1.870	1.807	-0.031	-0.011	-0.039
