Comment:	20231003 sppedbump
Time	Vehicle Speed	FL Sprung acceleration	FR Sprung acceleration	RL Sprung acceleration	RR Sprung acceleration	FL Unsprung acceleration	FR Unsprung acceleration	RL Unsprung acceleration	RR Unsprung acceleration	Bellow pressure RL	Bellow pressure RR	Acceleration X	Acceleration Y	Acceleration Z
s	km/h	gn	gn	gn	gn	gn	gn	gn	gn	bar	bar	g	g	g
0.000	38.388	-0.099	-0.161	-0.183	-0.183	1.482	0.586	0.548	1.924	1.861	1.736	0.104	0.125	-0.233
0.000	38.354	-0.095	-0.157	-0.187	-0.166	1.416	0.571	0.660	1.857	1.851	1.738	0.105	0.134	-0.228
0.000	38.376	-0.091	-0.154	-0.194	-0.143	1.431	0.551	0.601	1.991	1.857	1.744	0.110	0.142	-0.228
0.001	38.379	-0.082	-0.150	-0.200	-0.122	1.468	0.522	0.481	2.201	1.853	1.742	0.109	0.154	-0.224
0.001	38.376	-0.074	-0.148	-0.206	-0.092	1.515	0.495	0.395	2.371	1.855	1.736	0.108	0.161	-0.220
0.001	38.388	-0.067	-0.147	-0.213	-0.063	1.540	0.477	0.417	2.368	1.849	1.746	0.109	0.170	-0.222
0.001	38.379	-0.060	-0.144	-0.221	-0.031	1.552	0.474	0.512	2.186	1.850	1.743	0.109	0.178	-0.221
0.001	38.382	-0.057	-0.142	-0.230	-0.002	1.542	0.439	0.640	1.997	1.844	1.742	0.110	0.184	-0.220
0.002	38.382	-0.055	-0.137	-0.237	0.029	1.525	0.385	0.700	1.853	1.854	1.744	0.107	0.193	-0.219
0.002	38.379	-0.053	-0.134	-0.245	0.058	1.486	0.328	0.664	1.791	1.858	1.739	0.103	0.197	-0.219
0.002	38.373	-0.049	-0.131	-0.252	0.085	1.480	0.291	0.538	1.852	1.852	1.742	0.103	0.203	-0.218
0.002	38.382	-0.045	-0.129	-0.256	0.111	1.469	0.275	0.469	1.937	1.852	1.747	0.097	0.206	-0.216
0.002	38.358	-0.034	-0.128	-0.259	0.133	1.472	0.303	0.476	2.019	1.853	1.741	0.091	0.208	-0.214
0.003	38.376	-0.024	-0.129	-0.261	0.151	1.475	0.379	0.602	2.024	1.855	1.740	0.088	0.208	-0.214
0.003	38.367	-0.011	-0.129	-0.259	0.165	1.465	0.411	0.754	1.977	1.862	1.743	0.081	0.207	-0.211
0.003	38.376	0.000	-0.132	-0.256	0.173	1.477	0.390	0.812	1.912	1.856	1.740	0.076	0.206	-0.208
0.003	38.370	0.005	-0.134	-0.248	0.175	1.499	0.330	0.788	1.874	1.857	1.742	0.068	0.204	-0.206
0.003	38.370	0.009	-0.136	-0.238	0.169	1.499	0.225	0.657	1.859	1.850	1.743	0.065	0.201	-0.203
0.004	38.348	0.011	-0.136	-0.224	0.157	1.505	0.197	0.530	1.867	1.853	1.734	0.057	0.196	-0.200
0.004	38.364	0.014	-0.134	-0.212	0.139	1.516	0.173	0.496	1.866	1.849	1.734	0.050	0.191	-0.193
0.004	38.345	0.015	-0.128	-0.198	0.117	1.498	0.231	0.536	1.829	1.845	1.736	0.045	0.185	-0.186
0.004	38.333	0.020	-0.120	-0.183	0.090	1.524	0.326	0.631	1.741	1.849	1.733	0.039	0.177	-0.179
0.004	38.351	0.026	-0.112	-0.168	0.062	1.541	0.389	0.724	1.652	1.848	1.733	0.034	0.170	-0.173
0.005	38.339	0.032	-0.100	-0.155	0.031	1.589	0.429	0.768	1.602	1.845	1.740	0.031	0.163	-0.169
0.005	38.336	0.038	-0.091	-0.141	0.003	1.629	0.420	0.746	1.629	1.844	1.731	0.028	0.153	-0.162
0.005	38.336	0.042	-0.081	-0.129	-0.025	1.628	0.367	0.632	1.771	1.844	1.732	0.024	0.146	-0.158
0.005	38.321	0.045	-0.073	-0.117	-0.049	1.554	0.323	0.509	1.979	1.845	1.740	0.020	0.140	-0.150
0.005	38.315	0.047	-0.066	-0.104	-0.069	1.487	0.289	0.456	2.105	1.850	1.740	0.020	0.132	-0.144
0.006	38.312	0.047	-0.060	-0.093	-0.085	1.442	0.296	0.524	2.157	1.855	1.737	0.020	0.125	-0.140
0.006	38.306	0.052	-0.053	-0.081	-0.097	1.474	0.320	0.708	2.128	1.850	1.730	0.017	0.118	-0.136
0.006	38.312	0.055	-0.048	-0.067	-0.103	1.530	0.348	0.836	1.991	1.848	1.746	0.015	0.110	-0.136
0.006	38.339	0.059	-0.040	-0.055	-0.107	1.585	0.352	0.862	1.910	1.842	1.737	0.018	0.107	-0.135
0.006	38.315	0.065	-0.031	-0.041	-0.108	1.614	0.330	0.801	1.857	1.851	1.736	0.015	0.100	-0.134
0.007	38.309	0.066	-0.023	-0.028	-0.101	1.562	0.296	0.591	1.810	1.844	1.730	0.015	0.098	-0.135
0.007	38.309	0.070	-0.015	-0.015	-0.092	1.483	0.315	0.413	1.773	1.847	1.745	0.016	0.092	-0.136
0.007	38.321	0.074	-0.010	-0.002	-0.080	1.420	0.350	0.349	1.756	1.853	1.738	0.014	0.087	-0.136
0.007	38.312	0.072	-0.006	0.011	-0.066	1.363	0.444	0.405	1.719	1.843	1.734	0.017	0.082	-0.142
0.007	38.333	0.070	-0.002	0.023	-0.047	1.404	0.535	0.563	1.693	1.845	1.730	0.018	0.079	-0.143
0.008	38.327	0.071	-0.003	0.035	-0.029	1.421	0.565	0.682	1.629	1.853	1.734	0.017	0.075	-0.147
0.008	38.327	0.075	-0.005	0.047	-0.012	1.452	0.550	0.694	1.633	1.844	1.731	0.018	0.071	-0.149
0.008	38.336	0.078	-0.010	0.062	0.007	1.419	0.507	0.671	1.732	1.847	1.733	0.019	0.069	-0.151
0.008	38.321	0.085	-0.016	0.072	0.023	1.344	0.447	0.586	1.854	1.842	1.733	0.020	0.064	-0.154
0.008	38.345	0.089	-0.022	0.082	0.036	1.272	0.447	0.447	1.959	1.843	1.734	0.021	0.063	-0.157
0.009	38.348	0.094	-0.028	0.089	0.047	1.204	0.535	0.384	1.956	1.843	1.734	0.023	0.057	-0.156
0.009	38.351	0.100	-0.032	0.095	0.056	1.238	0.662	0.486	1.906	1.851	1.729	0.023	0.054	-0.158
0.009	38.336	0.100	-0.033	0.099	0.059	1.240	0.784	0.655	1.725	1.834	1.734	0.024	0.053	-0.162
0.009	38.336	0.102	-0.035	0.100	0.061	1.244	0.848	0.865	1.559	1.839	1.729	0.026	0.049	-0.159
0.009	38.336	0.105	-0.033	0.100	0.061	1.214	0.801	0.943	1.524	1.841	1.731	0.028	0.050	-0.160
0.010	38.348	0.105	-0.030	0.097	0.056	1.132	0.690	0.885	1.519	1.845	1.731	0.030	0.047	-0.162
0.010	38.348	0.108	-0.024	0.092	0.049	1.072	0.566	0.755	1.592	1.847	1.734	0.032	0.044	-0.160
0.010	38.336	0.110	-0.022	0.086	0.040	1.028	0.494	0.622	1.704	1.841	1.736	0.035	0.045	-0.161
0.010	38.333	0.116	-0.019	0.079	0.029	1.029	0.532	0.617	1.769	1.843	1.734	0.035	0.045	-0.159
0.010	38.333	0.118	-0.018	0.073	0.014	1.023	0.652	0.704	1.760	1.843	1.731	0.039	0.044	-0.155
0.011	38.342	0.122	-0.018	0.066	0.000	1.031	0.766	0.838	1.741	1.846	1.732	0.042	0.046	-0.158
0.011	38.336	0.122	-0.017	0.058	-0.015	1.005	0.821	0.898	1.698	1.839	1.730	0.043	0.049	-0.156
0.011	38.348	0.124	-0.014	0.049	-0.028	0.962	0.771	0.907	1.719	1.842	1.735	0.046	0.048	-0.154
0.011	38.345	0.124	-0.010	0.040	-0.038	0.920	0.672	0.864	1.726	1.842	1.733	0.053	0.054	-0.152
0.011	38.342	0.128	-0.006	0.030	-0.046	0.904	0.561	0.734	1.642	1.836	1.730	0.053	0.061	-0.149
0.012	38.361	0.126	0.001	0.019	-0.049	0.909	0.535	0.625	1.530	1.845	1.737	0.055	0.065	-0.147
0.012	38.354	0.130	0.007	0.010	-0.050	0.900	0.574	0.655	1.455	1.843	1.734	0.059	0.068	-0.143
0.012	38.342	0.131	0.013	-0.001	-0.044	0.900	0.682	0.849	1.405	1.847	1.736	0.060	0.076	-0.140
0.012	38.361	0.130	0.017	-0.013	-0.036	0.884	0.786	1.050	1.420	1.839	1.737	0.065	0.082	-0.136
0.012	38.367	0.126	0.023	-0.023	-0.020	0.869	0.853	1.148	1.519	1.843	1.738	0.069	0.089	-0.133
0.013	38.358	0.123	0.024	-0.037	-0.004	0.852	0.845	1.078	1.628	1.843	1.737	0.072	0.097	-0.129
0.013	38.361	0.118	0.025	-0.047	0.021	0.853	0.805	0.931	1.702	1.844	1.738	0.076	0.104	-0.123
0.013	38.379	0.117	0.022	-0.057	0.047	0.832	0.741	0.805	1.725	1.839	1.738	0.076	0.113	-0.118
0.013	38.351	0.114	0.018	-0.066	0.076	0.811	0.728	0.703	1.672	1.840	1.733	0.079	0.123	-0.111
0.013	38.339	0.114	0.017	-0.073	0.110	0.831	0.778	0.635	1.611	1.840	1.734	0.080	0.126	-0.107
0.014	38.370	0.113	0.014	-0.080	0.143	0.829	0.850	0.638	1.600	1.832	1.735	0.081	0.137	-0.103
0.014	38.345	0.112	0.012	-0.085	0.175	0.849	0.912	0.676	1.574	1.835	1.737	0.083	0.146	-0.098
0.014	38.342	0.111	0.010	-0.088	0.207	0.881	0.918	0.727	1.604	1.843	1.735	0.084	0.150	-0.092
0.014	38.348	0.106	0.011	-0.089	0.236	0.909	0.880	0.727	1.649	1.837	1.745	0.083	0.157	-0.091
0.014	38.339	0.102	0.011	-0.087	0.261	0.943	0.837	0.669	1.610	1.832	1.740	0.083	0.161	-0.085
0.015	38.339	0.098	0.011	-0.084	0.279	0.983	0.832	0.579	1.557	1.838	1.737	0.082	0.169	-0.079
0.015	38.339	0.093	0.012	-0.078	0.291	0.999	0.864	0.523	1.526	1.836	1.730	0.080	0.175	-0.079
0.015	38.324	0.091	0.012	-0.070	0.296	1.010	0.953	0.587	1.465	1.834	1.732	0.077	0.180	-0.078
0.015	38.342	0.088	0.010	-0.061	0.297	1.007	1.011	0.712	1.480	1.830	1.739	0.076	0.179	-0.077
0.015	38.327	0.086	0.007	-0.049	0.292	1.008	1.051	0.809	1.540	1.831	1.732	0.072	0.184	-0.071
0.016	38.327	0.083	0.005	-0.038	0.279	1.020	1.022	0.800	1.601	1.837	1.733	0.067	0.188	-0.069
0.016	38.309	0.081	0.005	-0.024	0.262	1.056	0.978	0.703	1.662	1.840	1.735	0.066	0.185	-0.069
0.016	38.306	0.077	0.006	-0.013	0.240	1.099	0.918	0.523	1.665	1.834	1.736	0.058	0.186	-0.068
0.016	38.333	0.075	0.011	-0.000	0.215	1.127	0.862	0.407	1.623	1.831	1.736	0.052	0.188	-0.068
0.016	38.333	0.071	0.016	0.011	0.184	1.125	0.858	0.368	1.542	1.834	1.737	0.052	0.185	-0.066
0.017	38.315	0.072	0.023	0.019	0.155	1.128	0.881	0.428	1.465	1.838	1.736	0.043	0.182	-0.063
0.017	38.309	0.067	0.027	0.027	0.124	1.108	0.907	0.583	1.446	1.829	1.737	0.042	0.182	-0.061
0.017	38.309	0.066	0.039	0.031	0.092	1.128	0.916	0.718	1.475	1.833	1.735	0.038	0.174	-0.059
0.017	38.315	0.066	0.043	0.033	0.062	1.196	0.911	0.777	1.540	1.842	1.733	0.031	0.176	-0.056
0.017	38.290	0.063	0.050	0.030	0.033	1.257	0.880	0.696	1.611	1.841	1.737	0.026	0.171	-0.056
0.018	38.290	0.058	0.054	0.026	0.006	1.316	0.859	0.546	1.646	1.848	1.734	0.021	0.170	-0.052
0.018	38.287	0.054	0.059	0.017	-0.017	1.302	0.856	0.401	1.585	1.842	1.734	0.017	0.162	-0.047
0.018	38.297	0.054	0.060	0.004	-0.036	1.259	0.854	0.304	1.482	1.833	1.733	0.012	0.159	-0.046
0.018	38.300	0.052	0.062	-0.010	-0.051	1.166	0.893	0.315	1.401	1.841	1.739	0.008	0.153	-0.041
0.018	38.287	0.055	0.062	-0.029	-0.063	1.114	0.936	0.483	1.330	1.845	1.736	0.004	0.148	-0.040
0.019	38.303	0.056	0.062	-0.046	-0.071	1.083	0.969	0.627	1.338	1.834	1.733	-0.001	0.145	-0.038
0.019	38.297	0.058	0.062	-0.065	-0.075	1.095	0.989	0.688	1.406	1.840	1.731	-0.004	0.139	-0.037
0.019	38.318	0.059	0.060	-0.085	-0.075	1.116	0.999	0.616	1.523	1.844	1.734	-0.005	0.133	-0.035
0.019	38.318	0.061	0.057	-0.103	-0.075	1.111	0.980	0.525	1.610	1.838	1.740	-0.009	0.131	-0.036
0.019	38.300	0.063	0.053	-0.120	-0.070	1.092	0.983	0.423	1.642	1.843	1.735	-0.012	0.124	-0.033
0.020	38.333	0.060	0.046	-0.132	-0.068	1.043	0.974	0.389	1.585	1.840	1.738	-0.013	0.119	-0.030
0.020	38.324	0.059	0.041	-0.144	-0.062	0.968	0.972	0.469	1.524	1.847	1.741	-0.015	0.118	-0.035
0.020	38.321	0.057	0.036	-0.149	-0.056	0.917	0.993	0.591	1.441	1.831	1.734	-0.018	0.113	-0.035
0.020	38.345	0.055	0.030	-0.157	-0.052	0.884	1.039	0.654	1.493	1.844	1.735	-0.018	0.107	-0.036
0.020	38.333	0.053	0.026	-0.158	-0.046	0.854	1.089	0.605	1.565	1.838	1.738	-0.020	0.107	-0.036
0.021	38.339	0.055	0.023	-0.159	-0.042	0.843	1.112	0.416	1.638	1.837	1.738	-0.022	0.104	-0.037
0.021	38.354	0.054	0.018	-0.159	-0.041	0.796	1.112	0.253	1.656	1.846	1.741	-0.022	0.098	-0.039
0.021	38.348	0.058	0.014	-0.154	-0.041	0.757	1.078	0.180	1.607	1.837	1.738	-0.023	0.095	-0.037
0.021	38.351	0.058	0.010	-0.151	-0.044	0.712	1.052	0.177	1.524	1.840	1.743	-0.026	0.091	-0.038
0.021	38.361	0.056	0.003	-0.146	-0.049	0.693	1.047	0.312	1.482	1.845	1.738	-0.024	0.089	-0.038
0.022	38.367	0.049	0.001	-0.143	-0.057	0.701	1.099	0.493	1.523	1.841	1.738	-0.024	0.086	-0.039
0.022	38.373	0.040	-0.005	-0.140	-0.067	0.749	1.147	0.609	1.636	1.835	1.734	-0.022	0.080	-0.036
0.022	38.391	0.031	-0.008	-0.137	-0.078	0.804	1.225	0.553	1.763	1.845	1.736	-0.021	0.080	-0.034
0.022	38.403	0.024	-0.009	-0.134	-0.090	0.793	1.250	0.374	1.872	1.843	1.739	-0.020	0.078	-0.035
0.022	38.400	0.019	-0.010	-0.134	-0.104	0.728	1.289	0.101	1.902	1.842	1.744	-0.019	0.075	-0.031
0.023	38.388	0.016	-0.010	-0.132	-0.117	0.632	1.280	-0.085	1.857	1.848	1.742	-0.018	0.071	-0.029
0.023	38.409	0.016	-0.009	-0.133	-0.131	0.531	1.277	-0.146	1.748	1.841	1.749	-0.017	0.071	-0.028
0.023	38.412	0.015	-0.007	-0.136	-0.143	0.495	1.295	-0.081	1.628	1.849	1.745	-0.013	0.069	-0.027
0.023	38.416	0.014	-0.006	-0.142	-0.155	0.518	1.321	0.047	1.585	1.850	1.748	-0.011	0.066	-0.024
0.023	38.419	0.010	-0.006	-0.150	-0.167	0.570	1.377	0.197	1.626	1.856	1.743	-0.009	0.064	-0.026
0.024	38.409	0.004	-0.006	-0.162	-0.173	0.614	1.399	0.189	1.688	1.855	1.736	-0.008	0.062	-0.024
0.024	38.434	-0.006	-0.006	-0.173	-0.180	0.639	1.399	0.075	1.806	1.841	1.741	-0.003	0.058	-0.022
0.024	38.416	-0.015	-0.010	-0.186	-0.180	0.645	1.362	-0.024	1.868	1.851	1.740	-0.001	0.059	-0.025
0.024	38.419	-0.023	-0.012	-0.198	-0.180	0.640	1.285	-0.088	1.854	1.854	1.743	0.000	0.057	-0.029
0.024	38.428	-0.028	-0.017	-0.208	-0.173	0.580	1.209	-0.051	1.763	1.853	1.743	0.003	0.056	-0.030
0.025	38.419	-0.027	-0.020	-0.220	-0.162	0.537	1.172	0.087	1.721	1.852	1.743	0.003	0.055	-0.034
0.025	38.431	-0.027	-0.025	-0.226	-0.147	0.449	1.153	0.257	1.753	1.848	1.743	0.006	0.050	-0.038
0.025	38.437	-0.028	-0.031	-0.233	-0.128	0.443	1.162	0.395	1.852	1.857	1.744	0.010	0.052	-0.045
0.025	38.443	-0.029	-0.035	-0.237	-0.108	0.481	1.177	0.398	1.964	1.852	1.740	0.010	0.054	-0.050
0.025	38.431	-0.036	-0.038	-0.237	-0.086	0.559	1.184	0.235	2.033	1.854	1.746	0.014	0.049	-0.057
0.026	38.437	-0.041	-0.042	-0.238	-0.062	0.602	1.167	0.051	2.003	1.852	1.740	0.015	0.049	-0.065
0.026	38.443	-0.048	-0.049	-0.236	-0.038	0.623	1.120	-0.122	1.939	1.843	1.743	0.017	0.048	-0.072
0.026	38.440	-0.055	-0.055	-0.234	-0.016	0.619	1.076	-0.141	1.898	1.848	1.742	0.021	0.047	-0.080
0.026	38.437	-0.056	-0.060	-0.228	0.007	0.623	1.047	-0.054	1.889	1.845	1.743	0.018	0.045	-0.084
0.026	38.443	-0.058	-0.069	-0.222	0.027	0.638	1.048	0.069	1.863	1.841	1.747	0.023	0.045	-0.093
0.027	38.467	-0.057	-0.073	-0.210	0.042	0.660	1.057	0.181	1.856	1.852	1.741	0.025	0.041	-0.097
0.027	38.443	-0.053	-0.080	-0.199	0.056	0.693	1.092	0.184	1.850	1.851	1.746	0.024	0.039	-0.100
0.027	38.425	-0.055	-0.085	-0.187	0.067	0.706	1.122	0.062	1.892	1.845	1.742	0.027	0.039	-0.104
0.027	38.431	-0.050	-0.089	-0.173	0.073	0.752	1.095	-0.137	1.916	1.843	1.743	0.027	0.034	-0.105
0.027	38.440	-0.053	-0.093	-0.159	0.075	0.761	1.067	-0.312	1.953	1.842	1.744	0.029	0.033	-0.106
0.028	38.431	-0.053	-0.092	-0.146	0.075	0.773	1.023	-0.341	1.985	1.844	1.741	0.029	0.030	-0.108
0.028	38.425	-0.060	-0.090	-0.134	0.070	0.724	0.992	-0.223	1.985	1.851	1.744	0.029	0.029	-0.109
0.028	38.437	-0.064	-0.087	-0.122	0.064	0.717	0.987	-0.020	1.979	1.845	1.745	0.029	0.025	-0.104
0.028	38.419	-0.066	-0.085	-0.111	0.054	0.735	1.026	0.170	2.007	1.854	1.749	0.030	0.024	-0.107
0.028	38.425	-0.065	-0.083	-0.100	0.043	0.833	1.072	0.198	2.063	1.855	1.753	0.029	0.024	-0.107
0.029	38.422	-0.061	-0.081	-0.092	0.035	0.925	1.118	0.060	2.109	1.841	1.748	0.027	0.021	-0.104
0.029	38.434	-0.058	-0.080	-0.084	0.022	0.975	1.117	-0.084	2.111	1.843	1.745	0.029	0.020	-0.098
0.029	38.409	-0.052	-0.078	-0.078	0.014	0.949	1.092	-0.217	2.082	1.848	1.743	0.030	0.019	-0.099
0.029	38.443	-0.050	-0.076	-0.071	0.006	0.875	1.053	-0.227	1.975	1.838	1.749	0.026	0.019	-0.100
0.029	38.412	-0.050	-0.075	-0.068	-0.001	0.815	1.025	-0.161	1.922	1.839	1.752	0.027	0.018	-0.095
0.030	38.412	-0.049	-0.075	-0.063	-0.005	0.835	0.985	-0.053	1.840	1.840	1.744	0.025	0.019	-0.092
0.030	38.425	-0.054	-0.075	-0.063	-0.006	0.925	0.987	0.016	1.858	1.838	1.750	0.026	0.025	-0.091
0.030	38.409	-0.059	-0.075	-0.061	-0.005	1.045	1.008	-0.009	1.858	1.842	1.745	0.024	0.021	-0.091
0.030	38.416	-0.062	-0.075	-0.059	0.000	1.124	1.051	-0.141	1.893	1.848	1.747	0.024	0.023	-0.087
0.030	38.406	-0.065	-0.076	-0.056	0.007	1.123	1.089	-0.328	1.968	1.842	1.744	0.021	0.023	-0.086
0.031	38.403	-0.063	-0.079	-0.054	0.016	1.064	1.135	-0.470	2.027	1.845	1.752	0.024	0.026	-0.087
0.031	38.416	-0.060	-0.080	-0.051	0.029	0.984	1.140	-0.512	2.054	1.840	1.745	0.024	0.028	-0.087
0.031	38.400	-0.054	-0.085	-0.049	0.042	0.930	1.135	-0.471	2.049	1.833	1.746	0.021	0.030	-0.084
0.031	38.425	-0.048	-0.086	-0.047	0.056	0.912	1.144	-0.371	2.049	1.842	1.745	0.020	0.032	-0.083
0.031	38.419	-0.045	-0.092	-0.044	0.073	0.938	1.160	-0.330	2.041	1.840	1.745	0.021	0.036	-0.083
0.032	38.422	-0.046	-0.096	-0.040	0.086	0.987	1.208	-0.439	2.003	1.840	1.743	0.017	0.035	-0.079
0.032	38.428	-0.049	-0.102	-0.036	0.099	1.018	1.252	-0.608	1.935	1.843	1.746	0.018	0.038	-0.082
0.032	38.422	-0.052	-0.105	-0.033	0.110	1.027	1.286	-0.786	1.891	1.843	1.752	0.017	0.039	-0.083
0.032	38.440	-0.054	-0.111	-0.029	0.121	0.984	1.283	-0.847	1.839	1.839	1.748	0.017	0.039	-0.078
0.032	38.443	-0.056	-0.115	-0.025	0.127	0.943	1.246	-0.725	1.808	1.843	1.757	0.016	0.041	-0.082
0.033	38.452	-0.053	-0.119	-0.021	0.133	0.912	1.202	-0.517	1.868	1.841	1.749	0.014	0.043	-0.082
0.033	38.458	-0.046	-0.126	-0.016	0.135	0.889	1.183	-0.302	1.957	1.844	1.741	0.012	0.043	-0.083
0.033	38.480	-0.037	-0.130	-0.013	0.133	0.859	1.215	-0.234	2.080	1.836	1.750	0.010	0.045	-0.088
0.033	38.470	-0.031	-0.134	-0.007	0.131	0.809	1.276	-0.316	2.197	1.843	1.753	0.008	0.042	-0.085
0.033	38.480	-0.029	-0.139	-0.003	0.122	0.713	1.340	-0.468	2.253	1.840	1.747	0.007	0.040	-0.089
0.034	38.474	-0.034	-0.142	-0.000	0.109	0.606	1.357	-0.615	2.196	1.833	1.752	0.003	0.042	-0.090
0.034	38.489	-0.044	-0.143	0.007	0.098	0.511	1.334	-0.639	2.072	1.834	1.756	0.003	0.041	-0.091
0.034	38.489	-0.056	-0.144	0.010	0.081	0.477	1.257	-0.561	1.960	1.833	1.749	0.000	0.041	-0.093
0.034	38.531	-0.066	-0.145	0.009	0.064	0.548	1.216	-0.424	1.851	1.836	1.748	-0.006	0.040	-0.100
0.034	38.495	-0.071	-0.148	0.007	0.044	0.668	1.188	-0.359	1.886	1.834	1.753	-0.003	0.038	-0.103
0.035	38.510	-0.070	-0.148	0.005	0.025	0.791	1.188	-0.428	1.911	1.835	1.746	-0.007	0.038	-0.105
0.035	38.504	-0.065	-0.151	-0.004	0.008	0.850	1.235	-0.630	1.956	1.828	1.746	-0.009	0.041	-0.108
0.035	38.519	-0.059	-0.154	-0.014	-0.007	0.805	1.317	-0.864	1.971	1.835	1.747	-0.013	0.038	-0.109
0.035	38.519	-0.055	-0.153	-0.029	-0.020	0.689	1.409	-0.972	1.901	1.826	1.753	-0.014	0.039	-0.111
0.035	38.522	-0.051	-0.153	-0.042	-0.028	0.584	1.486	-0.893	1.816	1.835	1.755	-0.020	0.041	-0.111
0.036	38.522	-0.054	-0.151	-0.060	-0.032	0.533	1.540	-0.706	1.782	1.834	1.761	-0.018	0.039	-0.116
0.036	38.531	-0.059	-0.149	-0.080	-0.029	0.549	1.535	-0.431	1.784	1.836	1.755	-0.019	0.039	-0.112
0.036	38.535	-0.067	-0.147	-0.101	-0.020	0.605	1.529	-0.232	1.864	1.831	1.756	-0.021	0.040	-0.107
0.036	38.541	-0.067	-0.144	-0.126	-0.007	0.679	1.517	-0.240	1.939	1.832	1.753	-0.024	0.040	-0.109
0.036	38.538	-0.067	-0.141	-0.151	0.013	0.730	1.528	-0.379	2.064	1.826	1.757	-0.027	0.042	-0.108
0.037	38.553	-0.063	-0.140	-0.180	0.036	0.779	1.537	-0.642	2.135	1.831	1.753	-0.028	0.043	-0.102
0.037	38.553	-0.055	-0.139	-0.211	0.063	0.775	1.535	-0.751	2.081	1.827	1.757	-0.028	0.041	-0.101
0.037	38.535	-0.050	-0.140	-0.242	0.093	0.772	1.517	-0.725	1.967	1.830	1.758	-0.031	0.046	-0.099
0.037	38.571	-0.045	-0.139	-0.269	0.122	0.719	1.499	-0.554	1.797	1.836	1.750	-0.030	0.044	-0.094
0.037	38.580	-0.044	-0.142	-0.296	0.153	0.676	1.474	-0.310	1.658	1.830	1.752	-0.033	0.044	-0.092
0.038	38.589	-0.048	-0.143	-0.320	0.179	0.640	1.467	-0.196	1.571	1.840	1.750	-0.037	0.047	-0.091
0.038	38.583	-0.051	-0.145	-0.338	0.204	0.617	1.458	-0.193	1.580	1.838	1.754	-0.039	0.046	-0.088
0.038	38.586	-0.055	-0.147	-0.350	0.223	0.590	1.442	-0.342	1.677	1.826	1.752	-0.041	0.044	-0.085
0.038	38.593	-0.058	-0.151	-0.360	0.239	0.546	1.417	-0.611	1.753	1.832	1.755	-0.044	0.047	-0.086
0.038	38.574	-0.057	-0.154	-0.359	0.246	0.501	1.370	-0.741	1.826	1.836	1.749	-0.049	0.044	-0.083
0.039	38.571	-0.056	-0.160	-0.354	0.248	0.495	1.358	-0.705	1.863	1.832	1.755	-0.050	0.042	-0.083
0.039	38.586	-0.052	-0.168	-0.341	0.242	0.541	1.330	-0.596	1.795	1.833	1.759	-0.057	0.041	-0.083
0.039	38.602	-0.048	-0.173	-0.326	0.231	0.659	1.340	-0.384	1.706	1.837	1.756	-0.060	0.043	-0.085
0.039	38.580	-0.044	-0.178	-0.305	0.210	0.742	1.348	-0.298	1.609	1.831	1.757	-0.064	0.038	-0.084
0.039	38.583	-0.041	-0.181	-0.281	0.189	0.781	1.350	-0.423	1.552	1.834	1.752	-0.066	0.037	-0.085
0.040	38.611	-0.039	-0.186	-0.254	0.160	0.735	1.344	-0.592	1.527	1.830	1.755	-0.073	0.033	-0.086
0.040	38.593	-0.035	-0.185	-0.225	0.127	0.658	1.338	-0.766	1.544	1.833	1.754	-0.074	0.032	-0.088
0.040	38.596	-0.033	-0.185	-0.194	0.094	0.586	1.304	-0.785	1.610	1.841	1.756	-0.075	0.029	-0.092
0.040	38.596	-0.031	-0.181	-0.162	0.059	0.592	1.284	-0.706	1.636	1.832	1.759	-0.082	0.028	-0.095
0.040	38.583	-0.026	-0.180	-0.131	0.026	0.620	1.271	-0.603	1.680	1.810	1.755	-0.085	0.027	-0.097
0.041	38.602	-0.017	-0.174	-0.102	-0.007	0.683	1.240	-0.538	1.704	1.824	1.760	-0.087	0.023	-0.100
0.041	38.593	-0.011	-0.169	-0.075	-0.034	0.720	1.248	-0.517	1.729	1.818	1.767	-0.090	0.023	-0.103
0.041	38.589	-0.004	-0.164	-0.054	-0.059	0.707	1.200	-0.575	1.735	1.824	1.763	-0.093	0.021	-0.103
0.041	38.614	0.002	-0.157	-0.036	-0.083	0.694	1.184	-0.707	1.684	1.822	1.760	-0.094	0.020	-0.106
0.041	38.596	0.004	-0.151	-0.020	-0.100	0.684	1.143	-0.856	1.614	1.829	1.758	-0.097	0.019	-0.110
0.042	38.614	0.007	-0.145	-0.009	-0.114	0.713	1.144	-0.881	1.504	1.825	1.761	-0.098	0.018	-0.113
0.042	38.586	0.009	-0.140	-0.004	-0.121	0.778	1.151	-0.777	1.410	1.829	1.765	-0.100	0.017	-0.115
0.042	38.580	0.012	-0.132	-0.004	-0.126	0.807	1.205	-0.629	1.318	1.831	1.765	-0.102	0.016	-0.121
0.042	38.605	0.016	-0.129	-0.007	-0.127	0.802	1.254	-0.619	1.290	1.824	1.767	-0.104	0.017	-0.121
0.042	38.596	0.019	-0.125	-0.013	-0.124	0.751	1.285	-0.753	1.293	1.832	1.762	-0.103	0.018	-0.126
0.043	38.596	0.027	-0.123	-0.022	-0.120	0.684	1.309	-0.918	1.325	1.824	1.763	-0.105	0.021	-0.127
0.043	38.593	0.034	-0.120	-0.033	-0.117	0.675	1.300	-1.069	1.336	1.829	1.763	-0.105	0.018	-0.128
0.043	38.596	0.038	-0.121	-0.043	-0.109	0.729	1.274	-1.037	1.284	1.827	1.757	-0.105	0.017	-0.132
0.043	38.574	0.039	-0.120	-0.057	-0.107	0.834	1.259	-0.866	1.191	1.828	1.767	-0.107	0.021	-0.132
0.043	38.599	0.036	-0.123	-0.069	-0.100	0.925	1.247	-0.616	1.106	1.822	1.762	-0.106	0.020	-0.135
0.044	38.596	0.036	-0.127	-0.083	-0.098	0.951	1.257	-0.383	1.048	1.823	1.759	-0.103	0.019	-0.135
0.044	38.577	0.033	-0.129	-0.096	-0.096	0.899	1.269	-0.311	1.052	1.825	1.758	-0.106	0.022	-0.134
0.044	38.596	0.033	-0.132	-0.110	-0.096	0.781	1.269	-0.439	1.040	1.828	1.758	-0.106	0.022	-0.134
0.044	38.593	0.037	-0.135	-0.124	-0.096	0.689	1.256	-0.692	1.082	1.826	1.765	-0.101	0.023	-0.135
0.044	38.602	0.041	-0.139	-0.139	-0.097	0.686	1.235	-0.913	1.114	1.820	1.763	-0.102	0.024	-0.131
0.045	38.602	0.043	-0.142	-0.154	-0.098	0.781	1.220	-1.027	1.098	1.824	1.763	-0.102	0.025	-0.128
0.045	38.596	0.044	-0.145	-0.169	-0.098	0.940	1.213	-0.957	1.022	1.819	1.768	-0.101	0.025	-0.124
0.045	38.593	0.041	-0.148	-0.183	-0.098	1.092	1.236	-0.730	0.910	1.820	1.764	-0.098	0.025	-0.119
0.045	38.577	0.036	-0.150	-0.198	-0.098	1.132	1.260	-0.478	0.825	1.822	1.763	-0.097	0.024	-0.115
0.045	38.593	0.028	-0.152	-0.213	-0.098	1.088	1.316	-0.378	0.777	1.825	1.763	-0.096	0.024	-0.112
0.046	38.596	0.019	-0.155	-0.227	-0.100	0.962	1.346	-0.416	0.784	1.825	1.772	-0.094	0.026	-0.104
0.046	38.583	0.017	-0.153	-0.239	-0.103	0.851	1.365	-0.556	0.784	1.820	1.770	-0.092	0.025	-0.097
0.046	38.599	0.016	-0.154	-0.252	-0.105	0.810	1.372	-0.662	0.747	1.825	1.774	-0.090	0.025	-0.093
0.046	38.617	0.018	-0.155	-0.265	-0.106	0.868	1.328	-0.680	0.707	1.820	1.774	-0.088	0.025	-0.087
0.046	38.599	0.021	-0.153	-0.275	-0.108	0.960	1.332	-0.544	0.643	1.815	1.773	-0.085	0.024	-0.079
0.047	38.608	0.021	-0.152	-0.287	-0.107	1.037	1.312	-0.336	0.595	1.820	1.768	-0.084	0.026	-0.074
0.047	38.626	0.018	-0.148	-0.295	-0.106	1.006	1.325	-0.159	0.549	1.815	1.766	-0.079	0.027	-0.069
0.047	38.617	0.014	-0.147	-0.300	-0.103	0.967	1.338	-0.133	0.511	1.817	1.766	-0.078	0.026	-0.062
0.047	38.608	0.002	-0.146	-0.305	-0.098	0.922	1.354	-0.274	0.470	1.825	1.767	-0.075	0.027	-0.060
0.047	38.632	-0.009	-0.145	-0.307	-0.094	0.940	1.361	-0.411	0.505	1.818	1.778	-0.073	0.029	-0.053
0.048	38.632	-0.015	-0.143	-0.305	-0.082	1.031	1.348	-0.513	0.509	1.815	1.770	-0.069	0.030	-0.050
0.048	38.651	-0.018	-0.144	-0.305	-0.074	1.123	1.333	-0.504	0.487	1.807	1.772	-0.062	0.030	-0.047
0.048	38.651	-0.015	-0.141	-0.303	-0.063	1.202	1.322	-0.354	0.509	1.811	1.776	-0.061	0.034	-0.045
0.048	38.651	-0.012	-0.139	-0.297	-0.052	1.185	1.322	-0.136	0.424	1.806	1.766	-0.058	0.033	-0.044
0.048	38.657	-0.007	-0.137	-0.294	-0.039	1.095	1.321	0.081	0.336	1.811	1.769	-0.052	0.037	-0.041
0.049	38.669	-0.005	-0.135	-0.288	-0.026	0.996	1.323	0.217	0.266	1.805	1.771	-0.049	0.041	-0.045
0.049	38.660	-0.009	-0.132	-0.281	-0.013	0.912	1.292	0.217	0.235	1.805	1.771	-0.045	0.043	-0.048
0.049	38.687	-0.016	-0.128	-0.276	0.003	0.866	1.258	0.145	0.252	1.805	1.771	-0.041	0.045	-0.050
0.049	38.672	-0.024	-0.123	-0.272	0.019	0.888	1.240	0.028	0.278	1.801	1.775	-0.036	0.048	-0.054
0.049	38.687	-0.034	-0.119	-0.267	0.033	0.944	1.207	-0.062	0.313	1.806	1.769	-0.035	0.048	-0.057
0.050	38.678	-0.041	-0.113	-0.261	0.046	1.019	1.197	-0.056	0.357	1.800	1.776	-0.032	0.051	-0.063
0.050	38.690	-0.043	-0.111	-0.255	0.057	1.080	1.202	-0.002	0.348	1.797	1.770	-0.029	0.050	-0.067
0.050	38.699	-0.042	-0.109	-0.247	0.063	1.072	1.191	0.008	0.299	1.807	1.772	-0.024	0.052	-0.073
0.050	38.705	-0.039	-0.107	-0.238	0.066	1.017	1.190	-0.032	0.195	1.814	1.774	-0.026	0.052	-0.078
0.050	38.684	-0.036	-0.107	-0.227	0.066	0.909	1.164	-0.072	0.114	1.803	1.773	-0.025	0.049	-0.086
0.051	38.690	-0.034	-0.111	-0.216	0.060	0.826	1.127	-0.062	0.076	1.807	1.773	-0.026	0.048	-0.085
0.051	38.708	-0.035	-0.111	-0.204	0.050	0.771	1.117	0.046	0.046	1.802	1.775	-0.026	0.045	-0.092
0.051	38.724	-0.039	-0.113	-0.191	0.037	0.805	1.124	0.107	0.094	1.804	1.771	-0.026	0.042	-0.092
0.051	38.712	-0.045	-0.113	-0.179	0.018	0.847	1.126	0.160	0.173	1.802	1.775	-0.027	0.038	-0.099
0.051	38.718	-0.048	-0.111	-0.167	-0.004	0.938	1.130	0.181	0.263	1.805	1.771	-0.030	0.035	-0.103
0.052	38.705	-0.050	-0.108	-0.156	-0.030	0.959	1.136	0.226	0.318	1.799	1.774	-0.032	0.032	-0.108
0.052	38.721	-0.050	-0.105	-0.146	-0.059	0.966	1.126	0.262	0.286	1.798	1.776	-0.035	0.029	-0.108
0.052	38.712	-0.049	-0.100	-0.135	-0.090	0.929	1.125	0.287	0.194	1.795	1.778	-0.039	0.023	-0.111
0.052	38.708	-0.046	-0.095	-0.125	-0.123	0.888	1.127	0.307	0.121	1.800	1.769	-0.040	0.023	-0.115
0.052	38.712	-0.041	-0.092	-0.117	-0.152	0.894	1.124	0.303	0.098	1.793	1.773	-0.045	0.017	-0.112
0.053	38.699	-0.039	-0.087	-0.109	-0.187	0.922	1.126	0.283	0.101	1.791	1.770	-0.046	0.014	-0.107
0.053	38.693	-0.039	-0.086	-0.101	-0.215	0.979	1.111	0.244	0.184	1.785	1.773	-0.047	0.010	-0.113
0.053	38.699	-0.039	-0.084	-0.093	-0.241	1.008	1.083	0.228	0.216	1.795	1.775	-0.051	0.011	-0.113
0.053	38.712	-0.041	-0.081	-0.089	-0.261	0.991	1.052	0.256	0.257	1.786	1.769	-0.052	0.010	-0.115
0.053	38.690	-0.041	-0.076	-0.084	-0.276	0.925	1.017	0.301	0.182	1.795	1.772	-0.052	0.013	-0.116
0.054	38.702	-0.038	-0.071	-0.082	-0.284	0.874	0.950	0.377	0.117	1.797	1.765	-0.056	0.017	-0.115
0.054	38.681	-0.035	-0.063	-0.081	-0.288	0.860	0.944	0.557	0.087	1.781	1.764	-0.057	0.018	-0.116
0.054	38.678	-0.030	-0.055	-0.080	-0.285	0.919	0.961	0.652	0.106	1.774	1.774	-0.058	0.020	-0.116
0.054	38.678	-0.028	-0.046	-0.079	-0.278	0.986	1.018	0.689	0.160	1.774	1.770	-0.060	0.023	-0.116
0.054	38.684	-0.027	-0.039	-0.080	-0.267	1.020	1.060	0.678	0.231	1.782	1.770	-0.057	0.028	-0.115
0.055	38.675	-0.031	-0.028	-0.081	-0.251	1.011	1.060	0.618	0.302	1.772	1.770	-0.059	0.033	-0.123
0.055	38.681	-0.036	-0.023	-0.083	-0.231	0.987	1.019	0.561	0.276	1.778	1.774	-0.058	0.038	-0.120
0.055	38.672	-0.041	-0.017	-0.086	-0.211	0.980	0.991	0.516	0.142	1.778	1.772	-0.057	0.043	-0.123
0.055	38.669	-0.044	-0.015	-0.089	-0.187	0.975	0.936	0.466	-0.022	1.783	1.770	-0.052	0.049	-0.125
0.055	38.657	-0.045	-0.016	-0.089	-0.164	0.989	0.896	0.508	-0.192	1.785	1.766	-0.057	0.053	-0.125
0.056	38.672	-0.043	-0.020	-0.090	-0.140	1.022	0.866	0.567	-0.314	1.775	1.768	-0.057	0.060	-0.130
0.056	38.663	-0.038	-0.023	-0.091	-0.120	1.026	0.870	0.625	-0.380	1.775	1.770	-0.056	0.071	-0.136
0.056	38.675	-0.033	-0.026	-0.091	-0.102	1.068	0.918	0.739	-0.308	1.781	1.765	-0.057	0.071	-0.141
0.056	38.657	-0.029	-0.029	-0.090	-0.088	1.125	0.953	0.871	-0.158	1.776	1.768	-0.056	0.076	-0.140
0.056	38.660	-0.029	-0.030	-0.090	-0.084	1.202	0.965	1.013	-0.083	1.770	1.762	-0.055	0.082	-0.145
0.057	38.626	-0.030	-0.029	-0.091	-0.083	1.271	0.951	1.125	-0.047	1.773	1.775	-0.057	0.085	-0.149
0.057	38.629	-0.035	-0.026	-0.088	-0.087	1.278	0.876	1.131	-0.068	1.768	1.767	-0.058	0.087	-0.156
0.057	38.641	-0.038	-0.021	-0.089	-0.101	1.264	0.828	1.134	-0.080	1.774	1.773	-0.057	0.092	-0.159
0.057	38.614	-0.043	-0.017	-0.090	-0.113	1.234	0.837	1.104	-0.054	1.773	1.769	-0.062	0.094	-0.159
0.057	38.638	-0.047	-0.012	-0.094	-0.133	1.166	0.893	1.084	-0.002	1.769	1.771	-0.057	0.096	-0.166
0.058	38.623	-0.047	-0.009	-0.100	-0.159	1.148	0.962	1.066	0.065	1.780	1.768	-0.060	0.098	-0.171
0.058	38.608	-0.048	-0.007	-0.109	-0.186	1.148	1.002	1.065	0.077	1.773	1.768	-0.055	0.097	-0.174
0.058	38.605	-0.045	-0.008	-0.119	-0.217	1.214	0.962	1.101	0.017	1.775	1.769	-0.058	0.100	-0.178
0.058	38.602	-0.046	-0.010	-0.130	-0.249	1.319	0.844	1.095	-0.059	1.772	1.770	-0.060	0.100	-0.182
0.058	38.599	-0.044	-0.010	-0.145	-0.282	1.445	0.724	1.074	-0.094	1.774	1.760	-0.057	0.102	-0.185
0.059	38.608	-0.045	-0.011	-0.157	-0.315	1.520	0.626	1.050	-0.106	1.772	1.756	-0.057	0.104	-0.187
0.059	38.596	-0.045	-0.009	-0.173	-0.345	1.541	0.656	1.033	-0.088	1.766	1.766	-0.053	0.102	-0.189
0.059	38.589	-0.047	-0.003	-0.189	-0.372	1.501	0.768	0.998	-0.058	1.769	1.763	-0.055	0.104	-0.191
0.059	38.583	-0.052	0.000	-0.206	-0.396	1.426	0.912	1.065	-0.012	1.762	1.761	-0.053	0.099	-0.193
0.059	38.586	-0.057	0.009	-0.221	-0.414	1.345	0.998	1.149	0.056	1.766	1.767	-0.049	0.098	-0.195
0.060	38.583	-0.062	0.013	-0.239	-0.425	1.283	0.950	1.210	0.054	1.758	1.762	-0.047	0.094	-0.196
0.060	38.593	-0.070	0.018	-0.257	-0.430	1.321	0.831	1.176	0.059	1.753	1.765	-0.047	0.091	-0.198
0.060	38.565	-0.073	0.019	-0.274	-0.430	1.456	0.670	1.059	0.078	1.764	1.768	-0.042	0.087	-0.200
0.060	38.593	-0.080	0.019	-0.294	-0.423	1.629	0.613	0.963	0.094	1.763	1.761	-0.038	0.084	-0.202
0.060	38.574	-0.083	0.018	-0.310	-0.411	1.755	0.675	0.924	0.125	1.760	1.766	-0.034	0.078	-0.202
0.061	38.571	-0.084	0.015	-0.327	-0.393	1.785	0.836	0.953	0.157	1.770	1.762	-0.030	0.074	-0.206
0.061	38.586	-0.086	0.008	-0.341	-0.371	1.701	0.953	1.020	0.222	1.762	1.763	-0.027	0.068	-0.211
0.061	38.574	-0.085	0.004	-0.352	-0.348	1.596	1.019	1.095	0.287	1.767	1.760	-0.023	0.063	-0.213
0.061	38.583	-0.088	-0.001	-0.362	-0.321	1.511	0.942	1.159	0.306	1.759	1.762	-0.018	0.055	-0.219
0.061	38.596	-0.091	-0.003	-0.368	-0.295	1.503	0.783	1.224	0.318	1.768	1.764	-0.015	0.050	-0.224
0.062	38.599	-0.096	-0.002	-0.371	-0.271	1.547	0.614	1.205	0.347	1.761	1.763	-0.013	0.041	-0.228
0.062	38.580	-0.101	-0.001	-0.368	-0.248	1.613	0.549	1.157	0.384	1.758	1.762	-0.008	0.033	-0.231
0.062	38.583	-0.105	0.001	-0.365	-0.227	1.672	0.607	1.159	0.409	1.755	1.760	-0.005	0.026	-0.239
0.062	38.580	-0.108	0.004	-0.357	-0.216	1.676	0.722	1.120	0.397	1.760	1.766	-0.001	0.019	-0.244
0.062	38.574	-0.109	0.005	-0.346	-0.205	1.627	0.840	1.084	0.429	1.764	1.763	0.003	0.010	-0.251
0.063	38.574	-0.109	0.004	-0.333	-0.199	1.529	0.844	1.039	0.403	1.761	1.763	0.004	0.004	-0.257
0.063	38.599	-0.109	0.004	-0.319	-0.200	1.427	0.740	0.984	0.364	1.758	1.761	0.006	0.001	-0.263
0.063	38.556	-0.109	0.002	-0.298	-0.205	1.331	0.548	0.949	0.315	1.759	1.762	0.010	-0.010	-0.270
0.063	38.574	-0.108	-0.000	-0.279	-0.214	1.276	0.368	0.881	0.287	1.763	1.757	0.011	-0.018	-0.273
0.063	38.559	-0.109	-0.002	-0.253	-0.229	1.249	0.312	0.928	0.292	1.762	1.752	0.010	-0.026	-0.279
0.064	38.559	-0.110	0.000	-0.227	-0.249	1.235	0.365	0.994	0.290	1.756	1.759	0.016	-0.032	-0.285
0.064	38.541	-0.109	0.004	-0.200	-0.271	1.252	0.447	1.035	0.363	1.753	1.752	0.021	-0.038	-0.292
0.064	38.547	-0.109	0.009	-0.174	-0.296	1.277	0.535	1.045	0.462	1.767	1.755	0.019	-0.047	-0.295
0.064	38.538	-0.106	0.017	-0.149	-0.321	1.311	0.522	1.056	0.543	1.759	1.758	0.022	-0.051	-0.302
0.064	38.531	-0.106	0.026	-0.130	-0.348	1.323	0.412	1.040	0.591	1.752	1.752	0.022	-0.056	-0.306
0.065	38.528	-0.104	0.032	-0.111	-0.373	1.313	0.267	1.025	0.580	1.758	1.754	0.023	-0.064	-0.307
0.065	38.528	-0.108	0.035	-0.097	-0.396	1.262	0.157	1.046	0.532	1.753	1.754	0.025	-0.069	-0.312
0.065	38.525	-0.111	0.039	-0.085	-0.417	1.167	0.155	1.076	0.452	1.760	1.749	0.023	-0.074	-0.313
0.065	38.504	-0.115	0.041	-0.075	-0.435	1.099	0.239	1.111	0.390	1.754	1.748	0.026	-0.079	-0.318
0.065	38.501	-0.117	0.042	-0.070	-0.451	1.037	0.356	1.161	0.396	1.753	1.748	0.026	-0.082	-0.323
0.066	38.516	-0.115	0.041	-0.066	-0.463	1.028	0.426	1.141	0.459	1.745	1.748	0.030	-0.086	-0.323
0.066	38.492	-0.109	0.037	-0.066	-0.468	1.064	0.376	1.038	0.563	1.755	1.754	0.031	-0.092	-0.324
0.066	38.480	-0.104	0.032	-0.066	-0.472	1.079	0.242	0.905	0.622	1.755	1.748	0.033	-0.094	-0.330
0.066	38.498	-0.096	0.029	-0.068	-0.473	1.095	0.098	0.831	0.611	1.759	1.752	0.036	-0.098	-0.331
0.066	38.489	-0.092	0.024	-0.071	-0.469	1.059	-0.021	0.819	0.593	1.760	1.748	0.038	-0.100	-0.334
0.067	38.492	-0.086	0.020	-0.075	-0.461	1.014	-0.013	0.846	0.523	1.755	1.751	0.040	-0.103	-0.337
0.067	38.483	-0.085	0.014	-0.076	-0.454	0.963	0.094	0.881	0.506	1.746	1.747	0.044	-0.106	-0.337
0.067	38.486	-0.085	0.007	-0.082	-0.437	0.940	0.191	0.901	0.558	1.754	1.756	0.047	-0.104	-0.339
0.067	38.480	-0.086	0.001	-0.084	-0.424	0.963	0.242	0.835	0.621	1.750	1.747	0.051	-0.106	-0.342
0.067	38.486	-0.088	-0.006	-0.086	-0.403	0.987	0.171	0.738	0.629	1.756	1.741	0.056	-0.107	-0.342
0.068	38.467	-0.086	-0.009	-0.087	-0.383	1.002	0.041	0.690	0.668	1.743	1.749	0.058	-0.105	-0.344
0.068	38.477	-0.083	-0.011	-0.085	-0.359	0.992	-0.105	0.675	0.668	1.736	1.743	0.060	-0.104	-0.344
0.068	38.495	-0.077	-0.014	-0.083	-0.335	0.979	-0.153	0.702	0.666	1.745	1.745	0.067	-0.103	-0.346
0.068	38.467	-0.071	-0.016	-0.081	-0.310	0.979	-0.123	0.746	0.668	1.746	1.737	0.070	-0.099	-0.345
0.068	38.474	-0.065	-0.019	-0.077	-0.287	1.023	-0.025	0.713	0.703	1.746	1.741	0.075	-0.099	-0.346
0.069	38.467	-0.064	-0.021	-0.072	-0.264	1.072	0.048	0.741	0.810	1.748	1.739	0.080	-0.097	-0.346
0.069	38.467	-0.063	-0.023	-0.067	-0.243	1.142	0.029	0.736	0.917	1.742	1.742	0.086	-0.096	-0.343
0.069	38.449	-0.066	-0.021	-0.059	-0.226	1.171	-0.032	0.753	0.978	1.745	1.742	0.088	-0.094	-0.345
0.069	38.446	-0.071	-0.022	-0.051	-0.210	1.154	-0.149	0.743	0.948	1.741	1.741	0.091	-0.091	-0.344
0.069	38.474	-0.075	-0.018	-0.040	-0.196	1.100	-0.219	0.738	0.914	1.749	1.745	0.095	-0.091	-0.341
0.070	38.437	-0.074	-0.016	-0.031	-0.187	1.035	-0.267	0.750	0.909	1.744	1.741	0.098	-0.088	-0.336
0.070	38.437	-0.074	-0.012	-0.021	-0.179	1.023	-0.199	0.754	0.936	1.743	1.741	0.100	-0.084	-0.334
0.070	38.455	-0.071	-0.008	-0.012	-0.175	1.074	-0.116	0.689	1.027	1.741	1.731	0.105	-0.083	-0.331
0.070	38.409	-0.067	-0.002	-0.004	-0.178	1.163	-0.038	0.602	1.105	1.740	1.741	0.105	-0.082	-0.322
0.070	38.425	-0.064	0.001	0.004	-0.182	1.276	-0.061	0.580	1.147	1.747	1.741	0.108	-0.079	-0.318
0.071	38.437	-0.061	0.005	0.012	-0.191	1.328	-0.150	0.642	1.112	1.744	1.743	0.108	-0.076	-0.312
0.071	38.443	-0.062	0.005	0.018	-0.204	1.345	-0.279	0.777	1.039	1.740	1.738	0.109	-0.076	-0.303
0.071	38.425	-0.064	0.005	0.023	-0.214	1.309	-0.368	0.860	1.010	1.737	1.738	0.111	-0.076	-0.297
0.071	38.489	-0.067	0.004	0.026	-0.227	1.283	-0.380	0.825	1.042	1.734	1.736	0.112	-0.072	-0.288
0.071	38.443	-0.069	0.004	0.029	-0.238	1.265	-0.355	0.691	1.198	1.737	1.734	0.113	-0.070	-0.277
0.072	38.449	-0.070	0.002	0.032	-0.247	1.269	-0.313	0.497	1.390	1.732	1.733	0.116	-0.069	-0.267
0.072	38.446	-0.069	0.002	0.033	-0.250	1.309	-0.282	0.374	1.527	1.733	1.740	0.116	-0.065	-0.255
0.072	38.483	-0.066	0.001	0.032	-0.247	1.383	-0.286	0.384	1.502	1.736	1.741	0.119	-0.059	-0.245
0.072	38.461	-0.063	-0.001	0.032	-0.236	1.443	-0.350	0.472	1.344	1.738	1.734	0.119	-0.053	-0.233
0.072	38.480	-0.060	-0.003	0.026	-0.216	1.476	-0.433	0.680	1.157	1.740	1.733	0.120	-0.047	-0.224
0.073	38.483	-0.058	-0.005	0.019	-0.190	1.457	-0.520	0.820	1.054	1.732	1.734	0.123	-0.040	-0.213
0.073	38.480	-0.058	-0.008	0.011	-0.152	1.396	-0.553	0.853	1.099	1.735	1.734	0.125	-0.032	-0.201
0.073	38.492	-0.059	-0.009	0.002	-0.107	1.333	-0.565	0.662	1.245	1.725	1.730	0.125	-0.024	-0.189
0.073	38.489	-0.057	-0.013	-0.007	-0.055	1.320	-0.538	0.366	1.479	1.738	1.731	0.129	-0.015	-0.178
0.073	38.495	-0.055	-0.016	-0.019	0.005	1.307	-0.541	0.143	1.662	1.730	1.731	0.133	-0.005	-0.168
0.074	38.498	-0.051	-0.019	-0.029	0.068	1.321	-0.554	0.087	1.729	1.732	1.724	0.132	0.005	-0.160
0.074	38.510	-0.048	-0.024	-0.039	0.135	1.319	-0.619	0.177	1.654	1.727	1.727	0.133	0.017	-0.150
0.074	38.492	-0.042	-0.025	-0.047	0.199	1.325	-0.675	0.330	1.508	1.724	1.729	0.133	0.026	-0.140
0.074	38.507	-0.039	-0.025	-0.052	0.261	1.320	-0.715	0.448	1.374	1.729	1.731	0.133	0.037	-0.129
0.074	38.504	-0.033	-0.023	-0.057	0.320	1.328	-0.734	0.468	1.381	1.724	1.719	0.132	0.047	-0.123
0.075	38.507	-0.029	-0.019	-0.058	0.368	1.322	-0.719	0.393	1.525	1.724	1.731	0.131	0.054	-0.111
0.075	38.507	-0.024	-0.015	-0.058	0.410	1.305	-0.703	0.272	1.737	1.722	1.728	0.127	0.062	-0.109
0.075	38.504	-0.020	-0.008	-0.056	0.443	1.281	-0.681	0.153	1.889	1.727	1.732	0.122	0.070	-0.103
0.075	38.486	-0.016	0.000	-0.053	0.466	1.234	-0.683	0.124	1.930	1.721	1.725	0.117	0.077	-0.092
0.075	38.492	-0.011	0.009	-0.046	0.482	1.174	-0.683	0.258	1.867	1.724	1.731	0.113	0.083	-0.087
0.076	38.492	-0.007	0.016	-0.038	0.485	1.100	-0.703	0.450	1.793	1.725	1.733	0.109	0.089	-0.082
0.076	38.495	-0.000	0.027	-0.028	0.479	1.043	-0.705	0.672	1.771	1.729	1.735	0.100	0.090	-0.074
0.076	38.489	0.005	0.033	-0.017	0.464	0.992	-0.708	0.761	1.881	1.724	1.733	0.092	0.096	-0.070
0.076	38.492	0.012	0.041	-0.006	0.436	0.958	-0.690	0.629	2.047	1.717	1.728	0.084	0.106	-0.065
0.076	38.483	0.018	0.050	0.005	0.406	0.980	-0.647	0.434	2.218	1.714	1.729	0.077	0.105	-0.061
0.077	38.489	0.024	0.056	0.012	0.370	1.014	-0.650	0.231	2.313	1.730	1.723	0.072	0.109	-0.054
0.077	38.492	0.029	0.068	0.018	0.332	1.038	-0.607	0.177	2.327	1.721	1.722	0.063	0.113	-0.052
0.077	38.474	0.034	0.075	0.022	0.293	1.022	-0.631	0.260	2.180	1.713	1.718	0.052	0.117	-0.044
0.077	38.495	0.037	0.083	0.021	0.257	0.965	-0.672	0.452	2.002	1.721	1.721	0.049	0.123	-0.046
0.077	38.495	0.042	0.089	0.022	0.224	0.883	-0.724	0.640	1.884	1.717	1.722	0.041	0.128	-0.042
0.078	38.474	0.046	0.094	0.018	0.200	0.776	-0.742	0.704	1.872	1.719	1.723	0.031	0.133	-0.041
0.078	38.495	0.052	0.097	0.010	0.182	0.679	-0.723	0.689	1.998	1.715	1.724	0.028	0.139	-0.040
0.078	38.492	0.058	0.102	0.001	0.172	0.605	-0.675	0.546	2.184	1.725	1.719	0.022	0.145	-0.037
0.078	38.489	0.068	0.105	-0.009	0.170	0.560	-0.631	0.411	2.315	1.718	1.721	0.018	0.150	-0.037
0.078	38.498	0.072	0.103	-0.022	0.175	0.550	-0.579	0.357	2.320	1.726	1.719	0.012	0.156	-0.036
0.079	38.486	0.081	0.104	-0.035	0.188	0.544	-0.593	0.472	2.206	1.723	1.719	0.010	0.163	-0.035
0.079	38.492	0.086	0.101	-0.051	0.206	0.540	-0.640	0.651	2.011	1.719	1.721	0.001	0.169	-0.033
0.079	38.498	0.088	0.100	-0.067	0.228	0.519	-0.691	0.786	1.890	1.718	1.723	-0.001	0.174	-0.035
0.079	38.504	0.092	0.099	-0.083	0.252	0.477	-0.707	0.799	1.932	1.719	1.720	-0.008	0.178	-0.033
0.079	38.477	0.092	0.099	-0.097	0.278	0.437	-0.714	0.699	2.054	1.713	1.717	-0.011	0.182	-0.030
0.080	38.501	0.097	0.098	-0.111	0.303	0.420	-0.718	0.586	2.229	1.718	1.720	-0.016	0.186	-0.030
0.080	38.480	0.105	0.100	-0.120	0.324	0.419	-0.730	0.530	2.311	1.722	1.720	-0.022	0.190	-0.030
0.080	38.474	0.113	0.100	-0.128	0.343	0.444	-0.760	0.529	2.304	1.716	1.723	-0.027	0.191	-0.028
0.080	38.467	0.120	0.101	-0.134	0.358	0.444	-0.742	0.647	2.194	1.721	1.729	-0.032	0.191	-0.027
0.080	38.480	0.127	0.101	-0.139	0.364	0.427	-0.762	0.765	2.081	1.720	1.725	-0.038	0.191	-0.022
0.081	38.464	0.129	0.102	-0.142	0.368	0.375	-0.737	0.851	2.060	1.712	1.721	-0.040	0.191	-0.019
0.081	38.480	0.129	0.102	-0.146	0.361	0.314	-0.747	0.862	2.191	1.715	1.721	-0.046	0.188	-0.018
0.081	38.483	0.125	0.100	-0.148	0.346	0.294	-0.757	0.725	2.339	1.724	1.716	-0.053	0.186	-0.014
0.081	38.461	0.120	0.096	-0.150	0.325	0.280	-0.786	0.550	2.508	1.718	1.714	-0.055	0.184	-0.012
0.081	38.480	0.119	0.095	-0.151	0.297	0.323	-0.825	0.378	2.534	1.720	1.713	-0.063	0.181	-0.006
0.082	38.495	0.119	0.092	-0.154	0.263	0.393	-0.846	0.346	2.407	1.713	1.721	-0.068	0.179	-0.001
0.082	38.480	0.124	0.088	-0.157	0.228	0.427	-0.869	0.458	2.232	1.724	1.723	-0.070	0.176	0.003
0.082	38.498	0.131	0.086	-0.160	0.191	0.444	-0.839	0.655	2.068	1.714	1.722	-0.073	0.176	0.007
0.082	38.501	0.140	0.082	-0.169	0.157	0.389	-0.786	0.800	2.032	1.723	1.711	-0.079	0.173	0.012
0.082	38.516	0.146	0.078	-0.180	0.125	0.365	-0.735	0.776	2.157	1.720	1.722	-0.081	0.171	0.017
0.083	38.501	0.151	0.075	-0.194	0.098	0.367	-0.696	0.682	2.347	1.718	1.721	-0.083	0.169	0.022
0.083	38.504	0.148	0.076	-0.214	0.076	0.434	-0.718	0.563	2.501	1.714	1.728	-0.083	0.168	0.025
0.083	38.504	0.145	0.074	-0.238	0.060	0.520	-0.757	0.525	2.547	1.712	1.721	-0.084	0.169	0.030
0.083	38.507	0.141	0.075	-0.269	0.052	0.591	-0.790	0.583	2.440	1.722	1.727	-0.085	0.168	0.036
0.083	38.516	0.138	0.077	-0.301	0.051	0.595	-0.790	0.734	2.254	1.709	1.720	-0.084	0.171	0.039
0.084	38.513	0.142	0.078	-0.337	0.058	0.556	-0.775	0.898	2.104	1.714	1.715	-0.082	0.171	0.045
0.084	38.516	0.146	0.080	-0.370	0.069	0.530	-0.732	1.029	2.097	1.710	1.705	-0.081	0.173	0.046
0.084	38.510	0.154	0.080	-0.405	0.088	0.494	-0.735	0.998	2.242	1.721	1.715	-0.080	0.176	0.048
0.084	38.535	0.159	0.081	-0.438	0.109	0.499	-0.746	0.935	2.452	1.712	1.709	-0.078	0.177	0.053
0.084	38.510	0.165	0.082	-0.467	0.135	0.570	-0.809	0.841	2.634	1.713	1.716	-0.075	0.179	0.050
0.085	38.547	0.166	0.083	-0.491	0.163	0.592	-0.894	0.819	2.667	1.717	1.713	-0.074	0.184	0.049
0.085	38.556	0.167	0.083	-0.513	0.191	0.633	-0.954	0.841	2.531	1.715	1.709	-0.071	0.186	0.049
0.085	38.547	0.165	0.083	-0.528	0.217	0.604	-0.972	0.941	2.366	1.714	1.721	-0.068	0.186	0.046
0.085	38.565	0.163	0.081	-0.536	0.241	0.533	-0.969	1.004	2.220	1.717	1.720	-0.068	0.188	0.042
0.085	38.553	0.162	0.079	-0.540	0.259	0.431	-0.924	0.989	2.153	1.707	1.717	-0.069	0.189	0.043
0.086	38.544	0.163	0.076	-0.539	0.273	0.352	-0.901	0.866	2.177	1.708	1.715	-0.067	0.189	0.043
0.086	38.580	0.165	0.074	-0.534	0.281	0.352	-0.882	0.683	2.294	1.715	1.718	-0.065	0.189	0.036
0.086	38.571	0.171	0.069	-0.524	0.282	0.417	-0.902	0.528	2.327	1.718	1.725	-0.067	0.187	0.034
0.086	38.580	0.179	0.065	-0.511	0.276	0.496	-0.926	0.431	2.278	1.721	1.720	-0.067	0.182	0.031
0.086	38.605	0.183	0.061	-0.495	0.263	0.502	-0.916	0.505	2.166	1.708	1.720	-0.067	0.180	0.025
0.087	38.571	0.186	0.057	-0.473	0.243	0.483	-0.873	0.701	2.057	1.712	1.712	-0.069	0.178	0.027
0.087	38.580	0.186	0.052	-0.452	0.216	0.381	-0.832	0.890	2.021	1.704	1.716	-0.071	0.170	0.020
0.087	38.596	0.186	0.053	-0.426	0.186	0.300	-0.747	1.015	2.060	1.706	1.712	-0.073	0.165	0.019
0.087	38.571	0.181	0.052	-0.400	0.152	0.249	-0.732	0.981	2.193	1.706	1.716	-0.077	0.159	0.020
0.087	38.596	0.179	0.053	-0.377	0.115	0.276	-0.743	0.910	2.312	1.715	1.712	-0.077	0.151	0.017
0.088	38.605	0.177	0.056	-0.354	0.080	0.326	-0.788	0.863	2.363	1.705	1.723	-0.081	0.143	0.015
0.088	38.596	0.180	0.060	-0.331	0.048	0.400	-0.840	0.835	2.293	1.713	1.713	-0.082	0.136	0.015
0.088	38.593	0.184	0.063	-0.312	0.019	0.438	-0.819	0.833	2.163	1.710	1.716	-0.084	0.128	0.014
0.088	38.602	0.191	0.066	-0.292	-0.006	0.420	-0.765	0.876	2.044	1.699	1.713	-0.087	0.121	0.013
0.088	38.593	0.198	0.070	-0.276	-0.027	0.342	-0.698	0.864	1.981	1.698	1.714	-0.090	0.114	0.015
0.089	38.586	0.202	0.074	-0.261	-0.043	0.255	-0.631	0.823	2.020	1.702	1.719	-0.089	0.109	0.012
0.089	38.623	0.203	0.081	-0.250	-0.053	0.169	-0.609	0.715	2.142	1.709	1.715	-0.091	0.102	0.009
0.089	38.583	0.201	0.087	-0.240	-0.060	0.131	-0.629	0.651	2.268	1.704	1.715	-0.092	0.097	0.016
0.089	38.586	0.199	0.096	-0.235	-0.060	0.129	-0.665	0.669	2.313	1.707	1.713	-0.088	0.093	0.013
0.089	38.589	0.197	0.103	-0.230	-0.055	0.144	-0.650	0.786	2.244	1.704	1.716	-0.088	0.091	0.013
0.090	38.571	0.197	0.110	-0.224	-0.049	0.158	-0.607	0.902	2.163	1.704	1.719	-0.086	0.087	0.014
0.090	38.614	0.199	0.116	-0.222	-0.036	0.165	-0.531	0.963	2.100	1.702	1.716	-0.083	0.086	0.014
0.090	38.544	0.204	0.121	-0.218	-0.022	0.147	-0.458	0.973	2.099	1.708	1.714	-0.081	0.086	0.018
0.090	38.565	0.209	0.125	-0.215	-0.007	0.120	-0.413	0.899	2.203	1.700	1.719	-0.077	0.084	0.022
0.090	38.550	0.211	0.126	-0.211	0.011	0.087	-0.420	0.748	2.251	1.711	1.716	-0.070	0.087	0.022
0.091	38.568	0.212	0.127	-0.208	0.028	0.054	-0.459	0.643	2.279	1.707	1.716	-0.068	0.087	0.027
0.091	38.574	0.210	0.124	-0.203	0.044	-0.013	-0.496	0.637	2.182	1.703	1.722	-0.061	0.088	0.031
0.091	38.547	0.206	0.122	-0.199	0.060	-0.068	-0.488	0.738	2.082	1.701	1.718	-0.058	0.089	0.036
0.091	38.531	0.202	0.119	-0.190	0.076	-0.158	-0.449	0.866	1.919	1.694	1.717	-0.052	0.094	0.040
0.091	38.547	0.200	0.119	-0.183	0.091	-0.252	-0.378	0.950	1.852	1.704	1.717	-0.046	0.095	0.047
0.092	38.547	0.200	0.115	-0.172	0.098	-0.323	-0.324	0.958	1.898	1.706	1.718	-0.041	0.098	0.055
0.092	38.550	0.201	0.115	-0.161	0.104	-0.312	-0.305	0.960	2.056	1.708	1.717	-0.037	0.098	0.056
0.092	38.535	0.204	0.113	-0.146	0.108	-0.257	-0.315	0.889	2.192	1.698	1.719	-0.032	0.098	0.065
0.092	38.565	0.206	0.112	-0.131	0.109	-0.202	-0.341	0.840	2.235	1.706	1.716	-0.028	0.099	0.071
0.092	38.531	0.207	0.109	-0.114	0.108	-0.189	-0.354	0.829	2.179	1.700	1.724	-0.021	0.098	0.076
0.093	38.556	0.204	0.108	-0.093	0.103	-0.218	-0.369	0.906	2.040	1.698	1.726	-0.018	0.097	0.082
0.093	38.544	0.199	0.105	-0.069	0.096	-0.264	-0.330	0.979	1.823	1.706	1.727	-0.013	0.100	0.090
0.093	38.525	0.194	0.104	-0.045	0.090	-0.308	-0.287	1.005	1.661	1.700	1.723	-0.013	0.097	0.091
0.093	38.556	0.188	0.106	-0.023	0.081	-0.306	-0.270	0.946	1.611	1.703	1.721	-0.007	0.097	0.097
0.093	38.516	0.185	0.107	-0.000	0.067	-0.237	-0.254	0.821	1.678	1.700	1.723	-0.003	0.096	0.099
0.094	38.541	0.185	0.109	0.021	0.052	-0.140	-0.266	0.717	1.850	1.700	1.721	0.001	0.095	0.097
0.094	38.522	0.187	0.112	0.039	0.035	-0.120	-0.278	0.641	2.005	1.697	1.721	0.004	0.098	0.098
0.094	38.538	0.188	0.116	0.055	0.015	-0.147	-0.252	0.655	2.060	1.702	1.722	0.008	0.100	0.098
0.094	38.516	0.189	0.120	0.070	-0.004	-0.234	-0.201	0.786	2.001	1.698	1.727	0.011	0.101	0.097
0.094	38.550	0.187	0.122	0.083	-0.021	-0.318	-0.124	0.941	1.877	1.697	1.717	0.013	0.106	0.092
0.095	38.525	0.182	0.125	0.093	-0.033	-0.349	-0.051	1.082	1.795	1.693	1.717	0.016	0.109	0.094
0.095	38.531	0.176	0.126	0.099	-0.043	-0.331	-0.040	1.104	1.811	1.703	1.724	0.022	0.112	0.096
0.095	38.550	0.170	0.127	0.102	-0.042	-0.279	-0.040	0.982	1.951	1.701	1.727	0.026	0.119	0.094
0.095	38.525	0.167	0.126	0.098	-0.035	-0.220	-0.059	0.717	2.082	1.704	1.726	0.029	0.125	0.089
0.095	38.522	0.167	0.126	0.091	-0.021	-0.199	-0.040	0.567	2.162	1.700	1.726	0.034	0.130	0.086
0.096	38.522	0.170	0.125	0.078	0.004	-0.204	-0.020	0.561	2.057	1.702	1.717	0.038	0.140	0.086
0.096	38.525	0.173	0.123	0.060	0.035	-0.262	0.056	0.684	1.828	1.704	1.727	0.044	0.153	0.083
0.096	38.528	0.172	0.122	0.039	0.071	-0.348	0.111	0.860	1.583	1.704	1.727	0.050	0.157	0.081
0.096	38.528	0.173	0.121	0.015	0.112	-0.364	0.170	0.982	1.500	1.707	1.723	0.052	0.162	0.083
0.096	38.535	0.167	0.119	-0.010	0.155	-0.371	0.185	0.968	1.590	1.704	1.727	0.055	0.174	0.081
0.097	38.535	0.160	0.118	-0.035	0.202	-0.311	0.203	0.848	1.769	1.700	1.727	0.061	0.183	0.078
0.097	38.535	0.151	0.117	-0.060	0.250	-0.230	0.161	0.677	1.950	1.701	1.730	0.066	0.190	0.082
0.097	38.525	0.147	0.114	-0.085	0.295	-0.187	0.142	0.586	2.057	1.704	1.725	0.067	0.196	0.077
0.097	38.516	0.148	0.115	-0.106	0.336	-0.202	0.147	0.609	2.024	1.704	1.729	0.069	0.203	0.081
0.097	38.528	0.148	0.110	-0.125	0.373	-0.240	0.182	0.691	1.854	1.712	1.726	0.071	0.208	0.082
0.098	38.522	0.154	0.108	-0.142	0.402	-0.267	0.223	0.828	1.665	1.706	1.726	0.071	0.210	0.084
0.098	38.528	0.160	0.105	-0.157	0.423	-0.240	0.256	0.945	1.560	1.702	1.727	0.071	0.215	0.079
0.098	38.513	0.163	0.104	-0.167	0.431	-0.191	0.283	0.938	1.564	1.706	1.726	0.069	0.217	0.082
0.098	38.507	0.166	0.103	-0.170	0.429	-0.128	0.293	0.827	1.716	1.705	1.723	0.069	0.216	0.077
0.098	38.516	0.161	0.106	-0.171	0.416	-0.107	0.318	0.667	1.878	1.703	1.725	0.065	0.216	0.075
0.099	38.531	0.158	0.110	-0.167	0.391	-0.130	0.365	0.570	1.953	1.702	1.732	0.063	0.213	0.074
0.099	38.522	0.151	0.116	-0.159	0.355	-0.178	0.422	0.647	1.908	1.701	1.730	0.060	0.210	0.069
0.099	38.541	0.143	0.125	-0.146	0.312	-0.219	0.497	0.751	1.747	1.702	1.728	0.056	0.208	0.065
0.099	38.547	0.144	0.133	-0.132	0.262	-0.228	0.578	0.835	1.523	1.710	1.726	0.055	0.203	0.061
0.099	38.574	0.146	0.142	-0.116	0.207	-0.205	0.642	0.838	1.358	1.701	1.730	0.051	0.198	0.052
0.100	38.553	0.152	0.147	-0.099	0.153	-0.125	0.691	0.764	1.308	1.706	1.726	0.047	0.191	0.048
0.100	38.544	0.157	0.154	-0.083	0.095	0.001	0.682	0.641	1.377	1.705	1.730	0.044	0.185	0.045
0.100	38.553	0.164	0.157	-0.068	0.044	0.090	0.651	0.540	1.432	1.713	1.737	0.040	0.180	0.036
0.100	38.531	0.164	0.161	-0.053	-0.008	0.101	0.618	0.507	1.439	1.708	1.737	0.035	0.174	0.029
0.100	38.531	0.161	0.163	-0.040	-0.051	0.024	0.631	0.560	1.345	1.701	1.737	0.036	0.167	0.021
0.101	38.556	0.157	0.167	-0.027	-0.088	-0.064	0.681	0.662	1.261	1.716	1.734	0.032	0.162	0.014
0.101	38.528	0.150	0.169	-0.025	-0.116	-0.117	0.761	0.718	1.178	1.708	1.734	0.032	0.160	0.007
0.101	38.547	0.146	0.175	-0.023	-0.137	-0.084	0.831	0.706	1.225	1.705	1.737	0.032	0.151	-0.002
0.101	38.541	0.144	0.180	-0.025	-0.149	0.011	0.878	0.616	1.342	1.710	1.735	0.033	0.145	-0.007
0.101	38.525	0.145	0.186	-0.031	-0.152	0.121	0.905	0.532	1.443	1.710	1.741	0.031	0.140	-0.015
0.102	38.550	0.147	0.191	-0.041	-0.148	0.180	0.896	0.512	1.477	1.719	1.736	0.034	0.135	-0.023
0.102	38.538	0.149	0.192	-0.055	-0.136	0.167	0.863	0.549	1.362	1.716	1.738	0.038	0.131	-0.029
0.102	38.522	0.148	0.194	-0.071	-0.117	0.095	0.894	0.656	1.152	1.722	1.737	0.037	0.125	-0.033
0.102	38.531	0.147	0.194	-0.088	-0.091	-0.012	0.920	0.727	0.959	1.724	1.734	0.038	0.121	-0.039
0.102	38.522	0.142	0.193	-0.106	-0.065	-0.114	1.038	0.711	0.851	1.715	1.736	0.042	0.116	-0.043
0.103	38.507	0.139	0.190	-0.121	-0.036	-0.129	1.124	0.599	0.875	1.719	1.737	0.044	0.111	-0.045
0.103	38.519	0.135	0.186	-0.139	-0.005	-0.064	1.202	0.482	1.005	1.713	1.744	0.045	0.107	-0.050
0.103	38.510	0.133	0.183	-0.152	0.022	0.090	1.214	0.461	1.132	1.717	1.744	0.049	0.105	-0.053
0.103	38.510	0.136	0.179	-0.164	0.047	0.182	1.212	0.583	1.208	1.716	1.748	0.052	0.098	-0.053
0.103	38.510	0.135	0.176	-0.173	0.071	0.190	1.210	0.737	1.169	1.722	1.744	0.053	0.094	-0.057
0.104	38.538	0.136	0.177	-0.181	0.089	0.101	1.272	0.897	1.075	1.713	1.747	0.054	0.091	-0.057
0.104	38.510	0.133	0.181	-0.186	0.102	-0.053	1.357	1.003	1.016	1.719	1.750	0.056	0.084	-0.057
0.104	38.495	0.129	0.189	-0.188	0.111	-0.202	1.441	0.948	0.986	1.722	1.746	0.058	0.075	-0.055
0.104	38.510	0.122	0.197	-0.190	0.117	-0.245	1.483	0.815	1.005	1.722	1.744	0.062	0.073	-0.056
0.104	38.486	0.115	0.206	-0.192	0.110	-0.199	1.477	0.646	1.035	1.727	1.745	0.064	0.069	-0.057
0.105	38.489	0.109	0.215	-0.190	0.105	-0.118	1.440	0.579	1.052	1.723	1.747	0.068	0.061	-0.056
0.105	38.495	0.105	0.222	-0.189	0.094	-0.058	1.403	0.626	1.030	1.723	1.745	0.069	0.059	-0.057
0.105	38.495	0.102	0.227	-0.191	0.078	-0.098	1.391	0.701	0.967	1.721	1.751	0.070	0.055	-0.057
0.105	38.480	0.105	0.229	-0.188	0.058	-0.213	1.377	0.726	0.918	1.722	1.754	0.077	0.051	-0.056
0.105	38.498	0.106	0.227	-0.189	0.035	-0.354	1.398	0.739	0.906	1.722	1.746	0.080	0.048	-0.054
0.106	38.498	0.110	0.225	-0.187	0.008	-0.448	1.423	0.656	0.973	1.715	1.754	0.085	0.045	-0.054
0.106	38.480	0.111	0.222	-0.186	-0.022	-0.402	1.435	0.594	1.028	1.728	1.747	0.088	0.043	-0.053
0.106	38.486	0.109	0.221	-0.182	-0.052	-0.287	1.460	0.542	1.098	1.727	1.753	0.089	0.043	-0.053
0.106	38.477	0.102	0.222	-0.180	-0.082	-0.125	1.508	0.572	1.089	1.727	1.755	0.096	0.042	-0.055
0.106	38.498	0.099	0.222	-0.177	-0.114	-0.037	1.572	0.654	1.013	1.725	1.747	0.102	0.039	-0.053
0.107	38.455	0.091	0.225	-0.175	-0.142	-0.099	1.631	0.757	0.980	1.724	1.751	0.105	0.041	-0.053
0.107	38.461	0.085	0.227	-0.173	-0.167	-0.234	1.714	0.810	0.981	1.722	1.751	0.110	0.039	-0.057
0.107	38.507	0.080	0.224	-0.173	-0.190	-0.372	1.719	0.792	1.011	1.732	1.752	0.115	0.039	-0.055
0.107	38.480	0.078	0.226	-0.173	-0.206	-0.492	1.750	0.702	1.083	1.730	1.751	0.120	0.041	-0.059
0.107	38.477	0.081	0.222	-0.175	-0.218	-0.513	1.720	0.585	1.095	1.723	1.760	0.124	0.043	-0.063
0.108	38.474	0.082	0.220	-0.175	-0.226	-0.427	1.709	0.570	1.046	1.724	1.754	0.129	0.042	-0.066
0.108	38.483	0.081	0.213	-0.177	-0.227	-0.322	1.696	0.632	0.971	1.728	1.754	0.131	0.043	-0.071
0.108	38.480	0.079	0.205	-0.177	-0.224	-0.211	1.726	0.676	0.907	1.728	1.759	0.135	0.044	-0.078
0.108	38.474	0.076	0.197	-0.176	-0.218	-0.178	1.744	0.665	0.893	1.727	1.756	0.139	0.044	-0.079
0.108	38.504	0.071	0.191	-0.172	-0.205	-0.208	1.742	0.551	0.931	1.723	1.761	0.142	0.044	-0.086
0.109	38.467	0.065	0.187	-0.168	-0.191	-0.292	1.723	0.428	0.962	1.729	1.756	0.141	0.046	-0.092
0.109	38.483	0.057	0.184	-0.161	-0.176	-0.359	1.705	0.362	0.953	1.733	1.761	0.143	0.045	-0.096
0.109	38.458	0.056	0.183	-0.155	-0.159	-0.412	1.702	0.377	0.893	1.736	1.756	0.146	0.044	-0.101
0.109	38.480	0.056	0.183	-0.149	-0.143	-0.396	1.731	0.435	0.763	1.727	1.754	0.145	0.044	-0.108
0.109	38.480	0.057	0.181	-0.142	-0.134	-0.342	1.763	0.538	0.664	1.739	1.758	0.146	0.042	-0.112
0.110	38.483	0.060	0.180	-0.134	-0.126	-0.263	1.797	0.638	0.653	1.739	1.757	0.148	0.039	-0.118
0.110	38.470	0.061	0.178	-0.124	-0.124	-0.190	1.804	0.711	0.711	1.729	1.756	0.146	0.040	-0.118
0.110	38.489	0.061	0.175	-0.113	-0.126	-0.124	1.780	0.739	0.819	1.725	1.760	0.143	0.040	-0.123
0.110	38.477	0.057	0.175	-0.097	-0.133	-0.095	1.790	0.747	0.912	1.728	1.764	0.145	0.035	-0.127
0.110	38.464	0.052	0.175	-0.084	-0.144	-0.089	1.804	0.726	0.949	1.725	1.762	0.144	0.033	-0.127
0.111	38.474	0.046	0.177	-0.066	-0.160	-0.110	1.869	0.719	0.919	1.723	1.765	0.143	0.031	-0.127
0.111	38.477	0.042	0.183	-0.045	-0.178	-0.129	1.907	0.677	0.817	1.733	1.758	0.144	0.029	-0.125
0.111	38.467	0.039	0.190	-0.025	-0.196	-0.084	1.936	0.679	0.712	1.732	1.760	0.145	0.026	-0.123
0.111	38.480	0.035	0.200	-0.004	-0.218	0.012	1.944	0.678	0.696	1.734	1.765	0.140	0.022	-0.120
0.111	38.480	0.038	0.211	0.016	-0.239	0.162	1.896	0.666	0.730	1.736	1.767	0.140	0.020	-0.115
0.112	38.486	0.035	0.220	0.033	-0.259	0.287	1.860	0.605	0.797	1.736	1.763	0.139	0.015	-0.111
0.112	38.483	0.035	0.229	0.046	-0.278	0.381	1.811	0.559	0.836	1.731	1.769	0.138	0.014	-0.102
0.112	38.504	0.029	0.234	0.056	-0.293	0.360	1.781	0.558	0.803	1.730	1.769	0.137	0.011	-0.098
0.112	38.470	0.022	0.240	0.064	-0.303	0.293	1.809	0.583	0.718	1.729	1.770	0.135	0.009	-0.093
0.112	38.498	0.013	0.242	0.066	-0.310	0.185	1.917	0.688	0.618	1.729	1.768	0.136	0.008	-0.080
0.113	38.513	0.006	0.243	0.066	-0.312	0.126	2.072	0.813	0.602	1.733	1.759	0.137	0.006	-0.073
0.113	38.492	0.001	0.241	0.065	-0.311	0.125	2.199	0.874	0.691	1.734	1.763	0.133	0.007	-0.066
0.113	38.495	-0.004	0.238	0.062	-0.307	0.202	2.259	0.821	0.849	1.727	1.767	0.133	0.004	-0.058
0.113	38.492	-0.003	0.231	0.056	-0.294	0.330	2.232	0.642	0.958	1.731	1.766	0.133	0.002	-0.051
0.113	38.507	-0.003	0.225	0.048	-0.282	0.432	2.180	0.404	0.938	1.729	1.758	0.130	0.006	-0.044
0.114	38.483	-0.004	0.218	0.036	-0.260	0.485	2.144	0.326	0.790	1.735	1.764	0.133	0.006	-0.036
0.114	38.519	-0.005	0.212	0.022	-0.239	0.506	2.170	0.372	0.639	1.728	1.768	0.134	0.008	-0.033
0.114	38.489	-0.008	0.206	0.004	-0.213	0.473	2.232	0.466	0.468	1.726	1.760	0.132	0.007	-0.027
0.114	38.504	-0.015	0.201	-0.014	-0.186	0.427	2.296	0.553	0.414	1.723	1.769	0.134	0.008	-0.026
0.114	38.504	-0.020	0.195	-0.030	-0.157	0.402	2.319	0.574	0.469	1.729	1.772	0.132	0.013	-0.022
0.115	38.507	-0.026	0.189	-0.048	-0.129	0.385	2.314	0.534	0.608	1.731	1.771	0.129	0.015	-0.022
0.115	38.501	-0.029	0.186	-0.063	-0.101	0.350	2.300	0.456	0.736	1.717	1.766	0.132	0.020	-0.022
0.115	38.492	-0.031	0.185	-0.075	-0.071	0.299	2.277	0.332	0.799	1.727	1.769	0.129	0.020	-0.021
0.115	38.498	-0.030	0.183	-0.087	-0.046	0.209	2.286	0.253	0.727	1.737	1.779	0.125	0.022	-0.022
0.115	38.489	-0.032	0.181	-0.094	-0.023	0.144	2.313	0.276	0.632	1.731	1.775	0.123	0.024	-0.020
0.116	38.483	-0.034	0.178	-0.100	-0.005	0.140	2.365	0.361	0.526	1.722	1.774	0.119	0.026	-0.025
0.116	38.477	-0.038	0.175	-0.105	0.007	0.214	2.403	0.468	0.535	1.725	1.779	0.118	0.026	-0.030
0.116	38.510	-0.044	0.171	-0.108	0.015	0.335	2.389	0.524	0.677	1.738	1.774	0.111	0.028	-0.034
0.116	38.486	-0.053	0.169	-0.112	0.017	0.420	2.378	0.476	0.890	1.732	1.768	0.108	0.029	-0.037
0.116	38.501	-0.058	0.168	-0.115	0.013	0.445	2.315	0.343	1.043	1.744	1.769	0.106	0.027	-0.041
0.117	38.495	-0.065	0.166	-0.119	0.006	0.397	2.296	0.237	1.078	1.733	1.773	0.097	0.028	-0.045
0.117	38.483	-0.072	0.167	-0.121	-0.009	0.280	2.325	0.166	0.972	1.723	1.773	0.090	0.030	-0.050
0.117	38.474	-0.071	0.169	-0.120	-0.027	0.217	2.401	0.197	0.805	1.736	1.775	0.083	0.028	-0.053
0.117	38.483	-0.072	0.171	-0.123	-0.050	0.187	2.490	0.305	0.698	1.734	1.768	0.077	0.032	-0.061
0.117	38.492	-0.072	0.176	-0.126	-0.077	0.233	2.538	0.398	0.717	1.740	1.763	0.070	0.027	-0.063
0.118	38.480	-0.073	0.179	-0.130	-0.106	0.316	2.514	0.475	0.815	1.739	1.767	0.063	0.026	-0.065
0.118	38.510	-0.076	0.180	-0.137	-0.138	0.408	2.427	0.439	0.980	1.742	1.774	0.056	0.027	-0.068
0.118	38.483	-0.080	0.181	-0.146	-0.170	0.447	2.328	0.322	1.078	1.736	1.780	0.048	0.025	-0.068
0.118	38.486	-0.087	0.177	-0.155	-0.202	0.400	2.286	0.198	1.072	1.740	1.781	0.043	0.023	-0.065
0.118	38.480	-0.092	0.175	-0.170	-0.230	0.301	2.320	0.093	0.979	1.735	1.777	0.035	0.024	-0.070
0.119	38.492	-0.099	0.169	-0.185	-0.255	0.178	2.403	0.100	0.886	1.737	1.775	0.027	0.024	-0.069
0.119	38.464	-0.099	0.166	-0.202	-0.273	0.117	2.506	0.225	0.868	1.743	1.773	0.024	0.021	-0.068
0.119	38.467	-0.100	0.159	-0.217	-0.281	0.129	2.562	0.364	0.863	1.740	1.779	0.019	0.023	-0.068
0.119	38.486	-0.099	0.153	-0.236	-0.282	0.219	2.542	0.465	0.936	1.739	1.785	0.012	0.024	-0.068
0.119	38.477	-0.102	0.145	-0.250	-0.270	0.339	2.451	0.528	0.996	1.727	1.771	0.008	0.023	-0.067
0.120	38.470	-0.103	0.137	-0.262	-0.252	0.408	2.314	0.414	1.003	1.737	1.770	0.004	0.021	-0.067
0.120	38.480	-0.107	0.131	-0.273	-0.222	0.421	2.235	0.268	0.958	1.737	1.773	-0.003	0.019	-0.069
0.120	38.467	-0.110	0.123	-0.282	-0.184	0.401	2.219	0.083	0.868	1.735	1.764	-0.006	0.019	-0.069
0.120	38.483	-0.114	0.116	-0.289	-0.137	0.357	2.246	-0.043	0.788	1.736	1.771	-0.009	0.018	-0.070
0.120	38.477	-0.114	0.108	-0.292	-0.084	0.327	2.298	-0.038	0.726	1.738	1.772	-0.014	0.015	-0.072
0.121	38.480	-0.115	0.102	-0.294	-0.023	0.311	2.330	0.052	0.686	1.738	1.772	-0.018	0.014	-0.076
0.121	38.498	-0.113	0.096	-0.293	0.040	0.313	2.276	0.125	0.696	1.740	1.781	-0.023	0.013	-0.080
0.121	38.504	-0.111	0.091	-0.290	0.102	0.356	2.196	0.218	0.757	1.752	1.786	-0.030	0.008	-0.082
0.121	38.474	-0.108	0.087	-0.283	0.164	0.421	2.110	0.250	0.822	1.744	1.782	-0.033	0.006	-0.091
0.121	38.489	-0.106	0.085	-0.275	0.221	0.482	2.057	0.243	0.837	1.730	1.779	-0.039	0.002	-0.097
0.122	38.492	-0.107	0.085	-0.265	0.269	0.524	2.047	0.230	0.792	1.731	1.775	-0.043	-0.003	-0.100
0.122	38.483	-0.107	0.086	-0.253	0.311	0.585	2.052	0.240	0.708	1.740	1.777	-0.049	-0.006	-0.108
0.122	38.495	-0.109	0.088	-0.242	0.341	0.613	2.076	0.299	0.662	1.743	1.772	-0.055	-0.010	-0.114
0.122	38.501	-0.108	0.091	-0.230	0.358	0.611	2.082	0.389	0.657	1.754	1.778	-0.060	-0.017	-0.119
0.122	38.495	-0.107	0.096	-0.219	0.363	0.570	2.040	0.416	0.701	1.740	1.776	-0.066	-0.019	-0.125
0.123	38.507	-0.104	0.102	-0.207	0.356	0.513	1.976	0.319	0.699	1.745	1.769	-0.072	-0.027	-0.128
0.123	38.498	-0.100	0.108	-0.196	0.336	0.471	1.932	0.168	0.688	1.740	1.771	-0.075	-0.032	-0.132
0.123	38.486	-0.095	0.113	-0.185	0.307	0.488	1.915	0.046	0.611	1.740	1.768	-0.081	-0.034	-0.134
0.123	38.498	-0.090	0.118	-0.175	0.269	0.571	1.973	-0.015	0.463	1.746	1.771	-0.083	-0.043	-0.135
0.123	38.495	-0.086	0.122	-0.166	0.226	0.683	2.036	0.020	0.340	1.747	1.767	-0.085	-0.045	-0.136
0.124	38.507	-0.085	0.127	-0.157	0.180	0.825	2.078	0.097	0.279	1.749	1.774	-0.090	-0.049	-0.136
0.124	38.492	-0.085	0.126	-0.149	0.132	0.899	2.065	0.238	0.405	1.754	1.775	-0.093	-0.054	-0.134
0.124	38.504	-0.084	0.127	-0.140	0.083	0.949	1.973	0.313	0.602	1.751	1.777	-0.095	-0.055	-0.131
0.124	38.492	-0.083	0.127	-0.137	0.038	0.897	1.856	0.306	0.807	1.744	1.779	-0.097	-0.053	-0.127
0.124	38.504	-0.078	0.126	-0.132	-0.003	0.797	1.774	0.233	0.938	1.751	1.778	-0.097	-0.055	-0.123
0.125	38.495	-0.072	0.123	-0.130	-0.039	0.699	1.757	0.070	0.937	1.747	1.780	-0.097	-0.058	-0.118
0.125	38.498	-0.065	0.117	-0.129	-0.066	0.650	1.799	-0.023	0.845	1.758	1.783	-0.098	-0.057	-0.112
0.125	38.513	-0.059	0.115	-0.129	-0.087	0.696	1.879	-0.023	0.692	1.754	1.772	-0.094	-0.054	-0.107
0.125	38.513	-0.049	0.107	-0.132	-0.100	0.814	1.903	0.112	0.613	1.750	1.777	-0.090	-0.052	-0.102
0.125	38.501	-0.042	0.103	-0.134	-0.104	0.934	1.932	0.228	0.625	1.744	1.780	-0.091	-0.048	-0.097
0.126	38.507	-0.033	0.094	-0.138	-0.101	1.030	1.884	0.223	0.753	1.751	1.783	-0.089	-0.042	-0.090
0.126	38.510	-0.029	0.088	-0.143	-0.092	1.039	1.842	0.109	0.934	1.750	1.772	-0.086	-0.038	-0.083
0.126	38.501	-0.023	0.077	-0.149	-0.079	0.996	1.802	-0.126	1.038	1.749	1.775	-0.081	-0.032	-0.075
0.126	38.501	-0.020	0.068	-0.154	-0.060	0.910	1.795	-0.268	1.029	1.745	1.773	-0.081	-0.026	-0.072
0.126	38.528	-0.021	0.057	-0.161	-0.039	0.869	1.811	-0.263	0.932	1.738	1.780	-0.077	-0.018	-0.069
0.127	38.504	-0.015	0.049	-0.168	-0.018	0.871	1.815	-0.162	0.783	1.751	1.775	-0.074	-0.014	-0.058
0.127	38.513	-0.010	0.039	-0.175	0.008	0.930	1.792	-0.016	0.741	1.754	1.775	-0.069	-0.005	-0.056
0.127	38.516	-0.004	0.032	-0.183	0.032	1.018	1.750	0.059	0.791	1.744	1.786	-0.069	0.001	-0.051
0.127	38.498	0.007	0.022	-0.189	0.053	1.143	1.701	0.044	0.844	1.754	1.783	-0.066	0.006	-0.044
0.127	38.513	0.012	0.013	-0.194	0.071	1.186	1.678	-0.070	0.912	1.750	1.782	-0.062	0.011	-0.038
0.128	38.510	0.014	0.005	-0.200	0.086	1.181	1.710	-0.183	0.900	1.749	1.779	-0.059	0.017	-0.035
0.128	38.510	0.013	-0.004	-0.203	0.092	1.102	1.736	-0.245	0.805	1.754	1.772	-0.060	0.025	-0.030
0.128	38.489	0.010	-0.010	-0.205	0.093	1.034	1.786	-0.204	0.703	1.743	1.782	-0.055	0.029	-0.024
0.128	38.504	0.005	-0.018	-0.202	0.089	1.038	1.758	-0.166	0.629	1.751	1.785	-0.056	0.036	-0.017
0.128	38.492	0.001	-0.024	-0.203	0.079	1.099	1.706	-0.100	0.654	1.750	1.778	-0.054	0.043	-0.012
0.129	38.501	-0.001	-0.031	-0.201	0.066	1.176	1.609	-0.097	0.712	1.744	1.774	-0.051	0.046	-0.007
0.129	38.492	-0.001	-0.036	-0.200	0.048	1.237	1.549	-0.206	0.804	1.747	1.769	-0.046	0.050	0.003
0.129	38.513	0.006	-0.041	-0.199	0.027	1.261	1.510	-0.316	0.895	1.749	1.774	-0.050	0.055	0.010
0.129	38.522	0.010	-0.043	-0.199	0.007	1.269	1.548	-0.425	0.914	1.745	1.767	-0.043	0.062	0.015
0.129	38.528	0.017	-0.046	-0.200	-0.015	1.272	1.604	-0.441	0.812	1.746	1.782	-0.038	0.066	0.022
0.130	38.507	0.021	-0.045	-0.201	-0.036	1.314	1.660	-0.353	0.710	1.750	1.782	-0.039	0.070	0.030
0.130	38.498	0.019	-0.046	-0.201	-0.056	1.336	1.661	-0.251	0.626	1.746	1.781	-0.035	0.076	0.034
0.130	38.519	0.018	-0.043	-0.204	-0.072	1.373	1.591	-0.138	0.657	1.754	1.776	-0.032	0.080	0.041
0.130	38.498	0.010	-0.040	-0.208	-0.087	1.357	1.483	-0.116	0.775	1.743	1.777	-0.028	0.087	0.049
0.130	38.513	0.007	-0.035	-0.213	-0.097	1.309	1.337	-0.158	0.907	1.745	1.784	-0.025	0.092	0.051
0.131	38.510	0.004	-0.030	-0.218	-0.104	1.253	1.271	-0.209	0.999	1.749	1.778	-0.021	0.097	0.057
0.131	38.495	0.004	-0.026	-0.224	-0.105	1.167	1.252	-0.162	0.956	1.752	1.774	-0.019	0.102	0.059
0.131	38.516	0.005	-0.022	-0.232	-0.100	1.153	1.256	-0.048	0.817	1.742	1.775	-0.013	0.106	0.062
0.131	38.495	0.008	-0.021	-0.239	-0.089	1.190	1.226	0.075	0.648	1.750	1.773	-0.012	0.112	0.066
0.131	38.486	0.008	-0.019	-0.248	-0.075	1.222	1.163	0.179	0.604	1.743	1.777	-0.006	0.116	0.065
0.132	38.501	0.008	-0.021	-0.255	-0.055	1.257	1.044	0.193	0.658	1.752	1.775	-0.004	0.122	0.072
0.132	38.507	0.004	-0.020	-0.261	-0.030	1.247	0.930	0.137	0.800	1.745	1.781	-0.001	0.124	0.074
0.132	38.492	-0.002	-0.022	-0.265	-0.000	1.195	0.850	0.005	0.918	1.738	1.770	0.000	0.127	0.075
0.132	38.486	-0.007	-0.024	-0.266	0.029	1.117	0.838	-0.141	0.948	1.743	1.780	0.002	0.129	0.076
0.132	38.486	-0.012	-0.027	-0.264	0.063	1.028	0.847	-0.154	0.897	1.738	1.774	0.004	0.130	0.075
0.133	38.486	-0.015	-0.032	-0.261	0.093	0.966	0.846	-0.089	0.781	1.746	1.776	0.004	0.134	0.079
0.133	38.522	-0.016	-0.039	-0.254	0.125	0.945	0.795	0.069	0.708	1.743	1.775	0.006	0.132	0.079
0.133	38.483	-0.014	-0.045	-0.244	0.152	0.953	0.696	0.223	0.743	1.735	1.778	0.007	0.132	0.082
0.133	38.489	-0.012	-0.052	-0.235	0.174	0.985	0.581	0.257	0.892	1.746	1.782	0.004	0.130	0.083
0.133	38.489	-0.010	-0.058	-0.221	0.189	1.025	0.485	0.161	0.961	1.741	1.778	0.003	0.126	0.083
0.134	38.486	-0.008	-0.064	-0.211	0.199	1.075	0.474	-0.023	1.019	1.739	1.775	0.004	0.124	0.085
0.134	38.483	-0.009	-0.069	-0.197	0.204	1.079	0.525	-0.120	0.979	1.736	1.776	0.002	0.121	0.088
0.134	38.480	-0.011	-0.071	-0.186	0.200	1.077	0.642	-0.137	0.896	1.751	1.774	0.001	0.117	0.086
0.134	38.477	-0.017	-0.074	-0.173	0.191	1.017	0.692	-0.047	0.754	1.744	1.775	0.001	0.112	0.086
0.134	38.489	-0.020	-0.072	-0.161	0.177	0.951	0.676	0.081	0.648	1.744	1.770	0.001	0.106	0.087
0.135	38.480	-0.024	-0.068	-0.150	0.157	0.889	0.573	0.206	0.657	1.745	1.772	0.002	0.099	0.086
0.135	38.486	-0.023	-0.063	-0.140	0.131	0.860	0.448	0.246	0.751	1.742	1.779	-0.003	0.095	0.084
0.135	38.495	-0.018	-0.057	-0.126	0.104	0.874	0.323	0.199	0.880	1.736	1.768	-0.003	0.089	0.084
0.135	38.480	-0.012	-0.051	-0.115	0.072	0.910	0.269	0.136	0.969	1.732	1.776	-0.003	0.087	0.083
0.135	38.474	-0.007	-0.042	-0.101	0.041	0.935	0.293	0.102	0.987	1.737	1.767	-0.002	0.079	0.080
0.136	38.470	0.000	-0.033	-0.086	0.010	0.935	0.357	0.145	0.921	1.734	1.779	-0.003	0.074	0.077
0.136	38.492	0.001	-0.023	-0.073	-0.019	0.883	0.416	0.259	0.827	1.738	1.776	-0.003	0.070	0.080
0.136	38.492	-0.000	-0.010	-0.058	-0.044	0.824	0.408	0.335	0.763	1.739	1.775	-0.001	0.067	0.073
0.136	38.510	-0.001	0.006	-0.045	-0.066	0.779	0.375	0.332	0.759	1.738	1.774	0.000	0.064	0.069
0.136	38.483	-0.004	0.019	-0.036	-0.084	0.788	0.303	0.235	0.804	1.742	1.772	-0.001	0.062	0.068
0.137	38.489	-0.005	0.037	-0.027	-0.095	0.840	0.252	0.098	0.807	1.741	1.782	0.007	0.058	0.063
0.137	38.492	0.000	0.050	-0.019	-0.102	0.912	0.235	-0.029	0.779	1.753	1.771	0.008	0.057	0.063
0.137	38.483	0.003	0.063	-0.012	-0.095	0.937	0.230	-0.021	0.747	1.737	1.774	0.012	0.058	0.059
0.137	38.489	0.008	0.074	-0.007	-0.090	0.924	0.254	0.044	0.669	1.743	1.781	0.016	0.053	0.055
0.137	38.477	0.013	0.080	-0.004	-0.077	0.892	0.244	0.194	0.698	1.749	1.772	0.016	0.057	0.053
0.138	38.486	0.015	0.084	0.000	-0.059	0.851	0.211	0.351	0.744	1.749	1.770	0.019	0.055	0.050
0.138	38.477	0.016	0.084	-0.001	-0.040	0.844	0.138	0.390	0.881	1.739	1.770	0.025	0.060	0.046
0.138	38.483	0.013	0.085	0.003	-0.017	0.857	0.075	0.340	1.053	1.745	1.767	0.027	0.060	0.045
0.138	38.464	0.011	0.085	0.004	0.007	0.877	0.014	0.235	1.166	1.737	1.779	0.029	0.058	0.042
0.138	38.483	0.008	0.083	0.001	0.032	0.892	0.016	0.114	1.190	1.742	1.773	0.033	0.058	0.041
0.139	38.461	0.010	0.081	0.001	0.056	0.889	0.027	0.134	1.107	1.744	1.775	0.034	0.059	0.041
0.139	38.464	0.010	0.077	-0.003	0.082	0.860	0.062	0.221	0.958	1.741	1.770	0.036	0.057	0.038
0.139	38.477	0.013	0.074	-0.009	0.105	0.833	0.046	0.344	0.784	1.748	1.764	0.036	0.057	0.036
0.139	38.498	0.017	0.068	-0.015	0.126	0.869	-0.007	0.457	0.704	1.743	1.770	0.040	0.056	0.032
0.139	38.483	0.014	0.063	-0.021	0.143	0.925	-0.111	0.575	0.774	1.736	1.764	0.043	0.057	0.028
0.140	38.474	0.013	0.059	-0.027	0.157	1.021	-0.187	0.632	0.913	1.745	1.765	0.039	0.052	0.026
0.140	38.474	0.006	0.053	-0.032	0.165	1.100	-0.234	0.639	1.009	1.739	1.770	0.040	0.053	0.021
0.140	38.480	-0.001	0.049	-0.037	0.169	1.107	-0.206	0.606	1.037	1.740	1.767	0.039	0.053	0.019
0.140	38.474	-0.007	0.047	-0.039	0.164	1.050	-0.118	0.566	0.968	1.734	1.763	0.038	0.052	0.014
0.140	38.467	-0.007	0.042	-0.042	0.157	0.982	-0.059	0.590	0.857	1.734	1.765	0.037	0.053	0.010
0.141	38.467	-0.008	0.042	-0.045	0.143	0.947	-0.028	0.653	0.724	1.747	1.761	0.037	0.052	0.008
0.141	38.449	-0.003	0.043	-0.046	0.126	0.990	-0.089	0.739	0.676	1.737	1.766	0.035	0.054	0.004
0.141	38.449	-0.000	0.045	-0.048	0.105	1.040	-0.185	0.715	0.670	1.736	1.767	0.035	0.056	-0.002
0.141	38.474	0.001	0.048	-0.047	0.083	1.095	-0.289	0.593	0.695	1.743	1.775	0.035	0.058	-0.004
0.141	38.452	-0.003	0.051	-0.046	0.059	1.102	-0.348	0.464	0.762	1.742	1.769	0.035	0.059	-0.007
0.142	38.458	-0.009	0.052	-0.046	0.037	1.047	-0.379	0.412	0.838	1.740	1.768	0.037	0.063	-0.012
0.142	38.474	-0.016	0.054	-0.045	0.020	0.993	-0.374	0.482	0.888	1.741	1.770	0.036	0.067	-0.012
0.142	38.440	-0.028	0.057	-0.047	0.003	0.900	-0.375	0.606	0.890	1.740	1.764	0.041	0.072	-0.012
0.142	38.443	-0.031	0.058	-0.050	-0.008	0.870	-0.388	0.730	0.935	1.729	1.767	0.042	0.077	-0.017
0.142	38.458	-0.033	0.056	-0.054	-0.014	0.873	-0.428	0.769	0.980	1.745	1.767	0.044	0.081	-0.018
0.143	38.431	-0.030	0.055	-0.060	-0.013	0.930	-0.497	0.793	1.039	1.744	1.762	0.046	0.085	-0.019
0.143	38.434	-0.026	0.055	-0.069	-0.005	0.983	-0.558	0.757	1.062	1.740	1.765	0.050	0.090	-0.019
0.143	38.449	-0.024	0.055	-0.082	0.009	0.989	-0.626	0.675	1.063	1.751	1.764	0.052	0.096	-0.019
0.143	38.419	-0.022	0.058	-0.097	0.030	0.942	-0.647	0.590	1.052	1.733	1.765	0.055	0.098	-0.023
0.143	38.422	-0.025	0.058	-0.114	0.058	0.849	-0.698	0.573	1.010	1.741	1.770	0.058	0.101	-0.022
0.144	38.422	-0.033	0.063	-0.134	0.089	0.749	-0.753	0.599	0.954	1.743	1.780	0.059	0.104	-0.020
0.144	38.416	-0.040	0.064	-0.153	0.124	0.679	-0.843	0.700	0.932	1.749	1.774	0.064	0.106	-0.022
0.144	38.400	-0.047	0.069	-0.174	0.160	0.643	-0.931	0.734	0.965	1.738	1.762	0.068	0.108	-0.022
0.144	38.412	-0.049	0.070	-0.190	0.195	0.653	-1.043	0.731	1.092	1.740	1.762	0.069	0.108	-0.016
0.144	38.419	-0.048	0.072	-0.207	0.225	0.693	-1.078	0.689	1.166	1.745	1.765	0.072	0.107	-0.014
0.145	38.409	-0.044	0.072	-0.220	0.251	0.692	-1.105	0.648	1.200	1.739	1.759	0.075	0.106	-0.012
0.145	38.416	-0.034	0.073	-0.232	0.267	0.674	-1.082	0.680	1.187	1.745	1.765	0.074	0.106	-0.005
0.145	38.388	-0.027	0.071	-0.242	0.276	0.645	-1.059	0.744	1.123	1.744	1.755	0.079	0.099	-0.003
0.145	38.388	-0.021	0.069	-0.249	0.274	0.586	-1.063	0.816	1.075	1.748	1.757	0.081	0.097	0.001
0.145	38.406	-0.024	0.068	-0.252	0.265	0.563	-1.095	0.846	1.113	1.737	1.761	0.084	0.093	0.008
0.146	38.385	-0.027	0.070	-0.253	0.245	0.574	-1.145	0.832	1.167	1.746	1.756	0.087	0.090	0.014
0.146	38.391	-0.031	0.075	-0.251	0.217	0.602	-1.214	0.750	1.298	1.735	1.765	0.089	0.087	0.016
0.146	38.394	-0.034	0.077	-0.245	0.186	0.606	-1.274	0.640	1.413	1.742	1.760	0.091	0.083	0.027
0.146	38.388	-0.035	0.083	-0.239	0.142	0.559	-1.307	0.560	1.459	1.743	1.757	0.098	0.079	0.034
0.146	38.367	-0.029	0.089	-0.228	0.097	0.478	-1.333	0.577	1.444	1.745	1.762	0.100	0.078	0.041
0.147	38.361	-0.023	0.092	-0.216	0.050	0.378	-1.326	0.658	1.403	1.744	1.757	0.105	0.077	0.047
0.147	38.385	-0.013	0.096	-0.199	0.002	0.291	-1.307	0.804	1.365	1.744	1.759	0.112	0.073	0.052
0.147	38.364	-0.004	0.097	-0.180	-0.044	0.281	-1.313	0.932	1.331	1.751	1.753	0.113	0.073	0.059
0.147	38.373	-0.002	0.097	-0.164	-0.087	0.276	-1.331	1.003	1.361	1.743	1.759	0.121	0.072	0.062
0.147	38.367	0.004	0.097	-0.144	-0.126	0.338	-1.360	1.011	1.401	1.743	1.754	0.127	0.074	0.068
0.148	38.348	0.001	0.096	-0.129	-0.156	0.351	-1.409	0.955	1.440	1.739	1.755	0.131	0.074	0.071
0.148	38.370	0.001	0.096	-0.112	-0.179	0.342	-1.466	0.845	1.448	1.740	1.754	0.140	0.073	0.073
0.148	38.358	-0.001	0.097	-0.101	-0.193	0.258	-1.506	0.784	1.429	1.739	1.758	0.144	0.075	0.075
0.148	38.345	0.003	0.102	-0.092	-0.197	0.141	-1.531	0.746	1.403	1.741	1.760	0.150	0.077	0.074
0.148	38.367	0.007	0.105	-0.085	-0.191	-0.010	-1.511	0.795	1.360	1.737	1.758	0.155	0.081	0.073
0.149	38.361	0.016	0.109	-0.078	-0.180	-0.073	-1.480	0.839	1.366	1.738	1.755	0.161	0.083	0.071
0.149	38.342	0.022	0.114	-0.075	-0.160	-0.062	-1.437	0.872	1.389	1.735	1.757	0.165	0.085	0.069
0.149	38.330	0.026	0.117	-0.073	-0.136	0.001	-1.404	0.870	1.406	1.736	1.758	0.169	0.086	0.064
0.149	38.351	0.031	0.118	-0.071	-0.105	0.081	-1.383	0.885	1.394	1.739	1.756	0.175	0.088	0.062
0.149	38.321	0.031	0.117	-0.071	-0.071	0.086	-1.379	0.902	1.331	1.729	1.750	0.177	0.090	0.059
0.150	38.339	0.029	0.117	-0.070	-0.035	0.064	-1.389	0.931	1.292	1.733	1.750	0.179	0.091	0.053
0.150	38.327	0.031	0.115	-0.069	0.002	0.017	-1.390	0.946	1.236	1.739	1.758	0.181	0.093	0.052
0.150	38.315	0.032	0.113	-0.068	0.039	-0.003	-1.380	0.969	1.248	1.741	1.749	0.183	0.096	0.049
0.150	38.324	0.036	0.112	-0.066	0.076	0.000	-1.359	0.998	1.328	1.736	1.757	0.185	0.094	0.043
0.150	38.321	0.042	0.111	-0.064	0.107	0.050	-1.325	1.007	1.389	1.736	1.756	0.187	0.095	0.040
0.151	38.290	0.047	0.109	-0.060	0.134	0.124	-1.317	0.991	1.423	1.739	1.757	0.188	0.094	0.038
0.151	38.300	0.053	0.110	-0.055	0.156	0.165	-1.309	1.025	1.480	1.740	1.751	0.188	0.094	0.031
0.151	38.300	0.052	0.113	-0.048	0.169	0.132	-1.356	1.054	1.479	1.732	1.758	0.187	0.096	0.031
0.151	38.297	0.049	0.117	-0.043	0.179	0.051	-1.406	1.089	1.482	1.727	1.749	0.190	0.096	0.030
0.151	38.309	0.043	0.122	-0.041	0.180	-0.072	-1.450	1.143	1.523	1.734	1.744	0.189	0.096	0.028
0.152	38.293	0.034	0.126	-0.037	0.174	-0.177	-1.454	1.148	1.649	1.735	1.751	0.191	0.099	0.028
0.152	38.293	0.028	0.129	-0.034	0.161	-0.215	-1.439	1.126	1.778	1.734	1.748	0.185	0.098	0.027
0.152	38.290	0.022	0.131	-0.033	0.145	-0.222	-1.410	1.042	1.810	1.732	1.746	0.191	0.104	0.028
0.152	38.287	0.024	0.131	-0.031	0.124	-0.159	-1.413	0.954	1.743	1.733	1.745	0.189	0.103	0.029
0.152	38.293	0.030	0.132	-0.033	0.102	-0.080	-1.427	0.936	1.612	1.732	1.744	0.189	0.106	0.031
0.153	38.297	0.036	0.132	-0.035	0.080	-0.023	-1.470	0.981	1.464	1.732	1.741	0.189	0.112	0.032
0.153	38.290	0.041	0.135	-0.038	0.059	-0.019	-1.490	0.995	1.365	1.738	1.745	0.189	0.116	0.034
0.153	38.284	0.043	0.136	-0.042	0.040	-0.061	-1.502	1.013	1.407	1.734	1.754	0.188	0.121	0.035
0.153	38.290	0.038	0.137	-0.047	0.025	-0.128	-1.472	0.943	1.554	1.731	1.755	0.186	0.127	0.034
0.153	38.281	0.031	0.139	-0.051	0.012	-0.193	-1.470	0.887	1.763	1.731	1.747	0.183	0.133	0.039
0.154	38.281	0.022	0.143	-0.057	0.004	-0.216	-1.472	0.825	1.922	1.731	1.750	0.183	0.139	0.039
0.154	38.300	0.012	0.145	-0.063	-0.000	-0.189	-1.494	0.799	1.999	1.726	1.744	0.180	0.143	0.038
0.154	38.293	0.005	0.149	-0.070	-0.000	-0.203	-1.516	0.827	1.975	1.730	1.743	0.176	0.149	0.042
0.154	38.275	0.004	0.149	-0.075	0.010	-0.206	-1.523	0.955	1.887	1.731	1.748	0.174	0.154	0.038
0.154	38.306	0.007	0.150	-0.083	0.023	-0.231	-1.499	1.118	1.853	1.735	1.747	0.170	0.161	0.035
0.155	38.290	0.010	0.148	-0.092	0.041	-0.234	-1.460	1.283	1.879	1.726	1.752	0.166	0.167	0.035
0.155	38.297	0.017	0.143	-0.102	0.066	-0.204	-1.431	1.337	1.990	1.734	1.747	0.161	0.170	0.031
0.155	38.297	0.018	0.137	-0.111	0.094	-0.185	-1.417	1.180	2.071	1.728	1.746	0.159	0.173	0.026
0.155	38.300	0.017	0.131	-0.119	0.123	-0.117	-1.434	0.969	2.092	1.725	1.743	0.150	0.175	0.025
0.155	38.312	0.009	0.127	-0.126	0.152	-0.071	-1.475	0.838	2.033	1.730	1.744	0.144	0.181	0.017
0.156	38.306	0.000	0.123	-0.131	0.182	-0.038	-1.548	0.856	1.924	1.729	1.745	0.136	0.182	0.017
0.156	38.290	-0.010	0.122	-0.133	0.207	-0.094	-1.620	0.949	1.774	1.725	1.739	0.131	0.179	0.007
0.156	38.269	-0.015	0.122	-0.135	0.228	-0.174	-1.654	1.054	1.705	1.726	1.738	0.122	0.181	0.006
0.156	38.272	-0.018	0.123	-0.134	0.244	-0.246	-1.652	1.115	1.769	1.721	1.736	0.115	0.178	0.006
0.156	38.300	-0.016	0.123	-0.129	0.255	-0.275	-1.619	1.060	1.922	1.737	1.738	0.110	0.175	-0.001
0.157	38.272	-0.011	0.123	-0.125	0.263	-0.255	-1.598	0.937	2.095	1.731	1.741	0.098	0.172	-0.005
0.157	38.275	-0.011	0.121	-0.116	0.267	-0.197	-1.587	0.792	2.150	1.726	1.746	0.087	0.166	-0.007
0.157	38.293	-0.008	0.119	-0.110	0.261	-0.086	-1.584	0.706	2.076	1.730	1.747	0.085	0.161	-0.009
0.157	38.260	-0.009	0.115	-0.097	0.255	0.011	-1.597	0.741	1.961	1.732	1.742	0.074	0.157	-0.009
0.157	38.266	-0.016	0.116	-0.086	0.242	0.051	-1.575	0.834	1.835	1.735	1.744	0.067	0.148	-0.010
0.158	38.263	-0.023	0.115	-0.071	0.228	0.043	-1.553	1.002	1.785	1.725	1.745	0.058	0.140	-0.009
0.158	38.251	-0.027	0.120	-0.058	0.206	-0.012	-1.542	1.084	1.868	1.729	1.744	0.050	0.134	-0.008
0.158	38.251	-0.028	0.126	-0.041	0.185	-0.081	-1.552	1.091	2.040	1.731	1.744	0.044	0.126	-0.007
0.158	38.272	-0.028	0.132	-0.028	0.159	-0.121	-1.548	1.017	2.214	1.736	1.745	0.035	0.119	-0.007
0.158	38.226	-0.023	0.139	-0.012	0.133	-0.095	-1.563	0.957	2.320	1.727	1.742	0.030	0.112	-0.003
0.159	38.239	-0.021	0.141	0.001	0.107	0.026	-1.592	0.948	2.324	1.732	1.743	0.023	0.103	0.001
0.159	38.226	-0.020	0.144	0.010	0.082	0.210	-1.611	0.983	2.217	1.728	1.748	0.018	0.095	0.005
0.159	38.239	-0.022	0.146	0.017	0.059	0.313	-1.626	1.065	2.086	1.735	1.745	0.011	0.088	0.006
0.159	38.223	-0.028	0.147	0.018	0.043	0.342	-1.607	1.117	1.960	1.729	1.743	0.008	0.081	0.011
0.159	38.242	-0.034	0.146	0.015	0.031	0.262	-1.572	1.135	1.916	1.734	1.736	0.003	0.075	0.014
0.160	38.214	-0.039	0.145	0.006	0.025	0.141	-1.492	1.084	1.939	1.738	1.748	-0.000	0.070	0.018
0.160	38.220	-0.044	0.140	-0.006	0.025	0.073	-1.435	1.010	1.938	1.728	1.743	-0.002	0.064	0.022
0.160	38.229	-0.040	0.135	-0.020	0.035	0.112	-1.411	1.001	1.911	1.736	1.738	-0.005	0.057	0.024
0.160	38.232	-0.039	0.127	-0.035	0.047	0.225	-1.441	1.079	1.842	1.730	1.742	-0.006	0.057	0.027
0.160	38.220	-0.034	0.123	-0.049	0.070	0.364	-1.445	1.188	1.763	1.736	1.744	-0.006	0.052	0.029
0.161	38.239	-0.033	0.116	-0.063	0.096	0.469	-1.438	1.210	1.767	1.741	1.741	-0.006	0.048	0.033
0.161	38.242	-0.030	0.110	-0.077	0.124	0.488	-1.385	1.177	1.903	1.743	1.737	-0.007	0.047	0.035
0.161	38.226	-0.033	0.102	-0.086	0.155	0.410	-1.296	1.063	2.036	1.738	1.737	-0.006	0.043	0.038
0.161	38.229	-0.039	0.094	-0.097	0.188	0.305	-1.204	1.007	2.126	1.742	1.745	-0.004	0.042	0.043
0.161	38.242	-0.049	0.088	-0.108	0.221	0.220	-1.123	0.997	2.102	1.737	1.743	-0.003	0.039	0.047
0.162	38.226	-0.056	0.083	-0.116	0.256	0.201	-1.056	1.030	1.941	1.734	1.742	-0.002	0.039	0.048
0.162	38.235	-0.063	0.080	-0.122	0.291	0.238	-1.023	1.202	1.791	1.740	1.744	0.001	0.036	0.052
0.162	38.229	-0.065	0.078	-0.127	0.320	0.293	-0.989	1.314	1.614	1.742	1.741	0.000	0.035	0.056
0.162	38.239	-0.064	0.076	-0.129	0.347	0.353	-0.930	1.354	1.547	1.748	1.745	0.004	0.032	0.058
0.162	38.248	-0.065	0.071	-0.127	0.370	0.340	-0.869	1.336	1.619	1.739	1.745	0.007	0.031	0.061
0.163	38.223	-0.063	0.068	-0.124	0.385	0.330	-0.785	1.260	1.762	1.741	1.750	0.007	0.031	0.064
0.163	38.248	-0.064	0.064	-0.116	0.393	0.300	-0.706	1.227	1.899	1.738	1.744	0.009	0.030	0.065
0.163	38.248	-0.072	0.063	-0.106	0.390	0.318	-0.633	1.266	1.983	1.744	1.739	0.010	0.029	0.070
0.163	38.235	-0.081	0.059	-0.093	0.380	0.365	-0.604	1.378	1.962	1.744	1.741	0.011	0.028	0.073
0.163	38.223	-0.091	0.058	-0.078	0.362	0.429	-0.574	1.523	1.925	1.745	1.740	0.014	0.029	0.077
0.164	38.229	-0.100	0.057	-0.063	0.337	0.473	-0.523	1.547	1.881	1.750	1.734	0.015	0.028	0.080
0.164	38.229	-0.106	0.056	-0.047	0.308	0.493	-0.471	1.456	1.864	1.747	1.742	0.016	0.030	0.081
0.164	38.257	-0.110	0.055	-0.032	0.277	0.444	-0.392	1.269	1.925	1.744	1.740	0.017	0.032	0.084
0.164	38.208	-0.110	0.054	-0.019	0.245	0.354	-0.316	1.122	1.965	1.756	1.737	0.020	0.035	0.090
0.164	38.251	-0.111	0.053	-0.008	0.216	0.258	-0.281	1.043	1.968	1.753	1.735	0.022	0.039	0.095
0.165	38.229	-0.108	0.047	0.002	0.187	0.218	-0.298	1.077	1.924	1.752	1.738	0.025	0.046	0.099
0.165	38.245	-0.111	0.039	0.010	0.161	0.274	-0.326	1.201	1.894	1.744	1.745	0.024	0.050	0.107
0.165	38.239	-0.117	0.029	0.015	0.140	0.375	-0.360	1.353	1.916	1.749	1.741	0.027	0.056	0.113
0.165	38.251	-0.123	0.016	0.016	0.124	0.520	-0.383	1.457	1.949	1.745	1.750	0.029	0.068	0.120
0.165	38.235	-0.129	0.005	0.013	0.112	0.597	-0.371	1.517	2.065	1.741	1.740	0.035	0.074	0.125
0.166	38.248	-0.134	-0.008	0.008	0.108	0.618	-0.339	1.491	2.219	1.758	1.741	0.040	0.082	0.132
0.166	38.239	-0.139	-0.018	-0.001	0.112	0.582	-0.279	1.421	2.322	1.752	1.741	0.043	0.093	0.140
0.166	38.251	-0.140	-0.029	-0.014	0.124	0.508	-0.203	1.392	2.340	1.750	1.746	0.047	0.108	0.145
0.166	38.232	-0.140	-0.036	-0.025	0.146	0.477	-0.119	1.418	2.293	1.747	1.743	0.051	0.117	0.147
0.166	38.232	-0.141	-0.048	-0.042	0.178	0.508	-0.082	1.456	2.216	1.743	1.741	0.057	0.129	0.155
0.167	38.260	-0.139	-0.057	-0.056	0.217	0.589	-0.054	1.505	2.130	1.754	1.742	0.060	0.139	0.157
0.167	38.223	-0.139	-0.065	-0.068	0.265	0.688	-0.037	1.513	2.073	1.756	1.743	0.064	0.151	0.159
0.167	38.235	-0.141	-0.075	-0.080	0.315	0.751	0.007	1.463	2.038	1.754	1.737	0.074	0.161	0.159
0.167	38.239	-0.140	-0.086	-0.084	0.369	0.761	0.076	1.437	2.033	1.754	1.744	0.073	0.171	0.160
0.167	38.226	-0.139	-0.094	-0.088	0.423	0.715	0.107	1.443	2.061	1.756	1.742	0.077	0.182	0.157
0.168	38.214	-0.139	-0.102	-0.088	0.474	0.664	0.121	1.495	2.113	1.760	1.754	0.078	0.191	0.154
0.168	38.217	-0.134	-0.109	-0.082	0.519	0.703	0.085	1.526	2.192	1.761	1.748	0.080	0.198	0.152
0.168	38.232	-0.131	-0.112	-0.073	0.555	0.780	0.052	1.488	2.230	1.749	1.750	0.084	0.204	0.144
0.168	38.199	-0.127	-0.113	-0.059	0.585	0.924	0.058	1.459	2.232	1.752	1.749	0.084	0.210	0.137
0.168	38.226	-0.122	-0.109	-0.043	0.606	1.034	0.142	1.499	2.138	1.749	1.745	0.084	0.214	0.133
0.169	38.254	-0.117	-0.105	-0.024	0.616	1.074	0.215	1.553	1.996	1.757	1.749	0.084	0.217	0.130
0.169	38.229	-0.113	-0.095	-0.006	0.616	1.068	0.282	1.592	1.889	1.761	1.748	0.083	0.220	0.118
0.169	38.220	-0.109	-0.087	0.012	0.609	1.051	0.287	1.617	1.869	1.758	1.743	0.079	0.218	0.115
0.169	38.229	-0.106	-0.078	0.028	0.589	1.048	0.264	1.607	1.959	1.754	1.751	0.079	0.220	0.111
0.169	38.220	-0.103	-0.071	0.045	0.563	1.062	0.226	1.580	2.095	1.753	1.753	0.078	0.222	0.105
0.170	38.220	-0.096	-0.063	0.056	0.523	1.115	0.228	1.543	2.213	1.750	1.748	0.075	0.219	0.102
0.170	38.239	-0.092	-0.061	0.067	0.480	1.160	0.264	1.539	2.310	1.762	1.745	0.074	0.215	0.100
0.170	38.239	-0.083	-0.058	0.078	0.430	1.207	0.365	1.574	2.272	1.761	1.740	0.071	0.214	0.097
0.170	38.226	-0.074	-0.057	0.083	0.378	1.253	0.460	1.579	2.159	1.762	1.741	0.067	0.211	0.099
0.170	38.229	-0.066	-0.059	0.089	0.325	1.292	0.554	1.575	2.028	1.761	1.747	0.069	0.211	0.099
0.171	38.235	-0.061	-0.057	0.090	0.274	1.350	0.643	1.567	1.961	1.756	1.750	0.067	0.206	0.098
0.171	38.248	-0.056	-0.058	0.089	0.225	1.426	0.699	1.495	1.954	1.765	1.748	0.064	0.202	0.106
0.171	38.254	-0.055	-0.057	0.087	0.182	1.505	0.731	1.434	1.949	1.759	1.754	0.065	0.199	0.109
0.171	38.245	-0.052	-0.059	0.081	0.146	1.577	0.750	1.387	1.924	1.766	1.749	0.063	0.196	0.114
0.171	38.257	-0.052	-0.059	0.073	0.117	1.615	0.796	1.335	1.877	1.757	1.760	0.065	0.193	0.117
0.172	38.254	-0.047	-0.067	0.063	0.097	1.624	0.841	1.313	1.847	1.763	1.759	0.065	0.191	0.122
0.172	38.263	-0.042	-0.074	0.053	0.086	1.623	0.901	1.271	1.815	1.759	1.756	0.068	0.188	0.125
0.172	38.290	-0.036	-0.083	0.041	0.083	1.627	0.977	1.299	1.820	1.763	1.751	0.068	0.186	0.127
0.172	38.269	-0.026	-0.093	0.030	0.086	1.685	1.023	1.314	1.882	1.769	1.749	0.067	0.185	0.134
0.172	38.272	-0.020	-0.103	0.021	0.097	1.763	1.075	1.361	1.939	1.764	1.750	0.071	0.184	0.135
0.173	38.272	-0.013	-0.113	0.014	0.113	1.852	1.100	1.397	1.997	1.763	1.755	0.072	0.182	0.137
0.173	38.287	-0.014	-0.120	0.008	0.133	1.894	1.124	1.394	2.013	1.760	1.742	0.075	0.181	0.142
0.173	38.248	-0.013	-0.125	0.005	0.153	1.919	1.120	1.369	2.001	1.755	1.743	0.077	0.179	0.140
0.173	38.312	-0.016	-0.125	0.002	0.176	1.882	1.114	1.282	2.005	1.758	1.749	0.077	0.179	0.141
0.173	38.281	-0.015	-0.122	-0.000	0.200	1.830	1.083	1.205	2.025	1.758	1.751	0.080	0.178	0.142
0.174	38.290	-0.014	-0.115	-0.001	0.225	1.772	1.068	1.172	2.077	1.762	1.749	0.080	0.173	0.140
0.174	38.297	-0.008	-0.108	-0.007	0.247	1.763	1.046	1.153	2.122	1.763	1.752	0.079	0.172	0.139
0.174	38.309	-0.002	-0.099	-0.011	0.269	1.777	1.035	1.193	2.086	1.764	1.755	0.079	0.167	0.141
0.174	38.275	0.002	-0.093	-0.017	0.285	1.813	1.030	1.238	2.012	1.764	1.754	0.079	0.162	0.144
0.174	38.284	0.001	-0.084	-0.019	0.298	1.822	1.040	1.296	1.981	1.762	1.757	0.078	0.157	0.139
0.175	38.293	-0.002	-0.080	-0.023	0.303	1.780	1.044	1.350	1.919	1.774	1.758	0.075	0.152	0.137
0.175	38.293	-0.011	-0.075	-0.026	0.303	1.709	1.058	1.325	1.900	1.775	1.760	0.069	0.144	0.136
0.175	38.303	-0.022	-0.073	-0.030	0.298	1.640	1.106	1.286	1.930	1.768	1.764	0.071	0.138	0.133
0.175	38.293	-0.031	-0.070	-0.031	0.285	1.605	1.171	1.186	1.953	1.779	1.761	0.066	0.133	0.134
0.175	38.303	-0.039	-0.067	-0.030	0.267	1.623	1.215	1.108	1.956	1.770	1.759	0.063	0.123	0.132
0.176	38.309	-0.042	-0.063	-0.030	0.242	1.697	1.236	1.095	1.947	1.770	1.757	0.060	0.117	0.129
0.176	38.318	-0.040	-0.058	-0.030	0.214	1.749	1.241	1.161	1.981	1.767	1.760	0.056	0.109	0.129
0.176	38.318	-0.038	-0.057	-0.032	0.184	1.789	1.253	1.224	2.057	1.774	1.759	0.055	0.107	0.128
0.176	38.312	-0.036	-0.050	-0.036	0.153	1.770	1.286	1.247	2.163	1.766	1.760	0.053	0.096	0.121
0.176	38.327	-0.035	-0.047	-0.042	0.123	1.742	1.325	1.200	2.293	1.774	1.759	0.048	0.091	0.125
0.177	38.327	-0.042	-0.045	-0.049	0.094	1.699	1.368	1.132	2.368	1.777	1.759	0.048	0.086	0.124
0.177	38.321	-0.048	-0.044	-0.059	0.068	1.640	1.411	1.122	2.377	1.776	1.761	0.046	0.082	0.120
0.177	38.315	-0.058	-0.042	-0.066	0.046	1.596	1.445	1.132	2.337	1.775	1.763	0.043	0.079	0.120
0.177	38.330	-0.067	-0.041	-0.077	0.023	1.584	1.483	1.171	2.267	1.771	1.761	0.045	0.076	0.116
0.177	38.330	-0.069	-0.040	-0.088	0.007	1.578	1.482	1.226	2.225	1.785	1.771	0.043	0.075	0.112
0.178	38.370	-0.073	-0.038	-0.100	-0.003	1.572	1.469	1.256	2.228	1.786	1.761	0.045	0.074	0.109
0.178	38.351	-0.071	-0.037	-0.111	-0.007	1.575	1.411	1.284	2.269	1.788	1.764	0.046	0.073	0.105
0.178	38.361	-0.071	-0.036	-0.123	-0.007	1.541	1.349	1.231	2.357	1.794	1.768	0.048	0.075	0.098
0.178	38.373	-0.069	-0.035	-0.136	0.003	1.514	1.282	1.127	2.426	1.796	1.764	0.047	0.076	0.095
0.178	38.354	-0.073	-0.034	-0.147	0.013	1.474	1.270	1.046	2.459	1.798	1.771	0.051	0.078	0.092
0.179	38.351	-0.078	-0.034	-0.156	0.033	1.463	1.261	0.973	2.450	1.794	1.772	0.052	0.081	0.081
0.179	38.351	-0.086	-0.035	-0.163	0.049	1.479	1.297	0.940	2.396	1.797	1.772	0.054	0.082	0.075
0.179	38.364	-0.096	-0.039	-0.167	0.078	1.484	1.306	0.913	2.336	1.790	1.770	0.058	0.084	0.069
0.179	38.351	-0.102	-0.045	-0.166	0.105	1.482	1.345	0.874	2.375	1.794	1.777	0.056	0.086	0.062
0.179	38.367	-0.108	-0.052	-0.159	0.131	1.431	1.377	0.846	2.399	1.797	1.773	0.060	0.087	0.054
0.180	38.364	-0.109	-0.060	-0.147	0.155	1.384	1.405	0.754	2.413	1.801	1.763	0.060	0.088	0.046
0.180	38.364	-0.107	-0.069	-0.133	0.176	1.344	1.432	0.694	2.360	1.800	1.764	0.058	0.088	0.038
0.180	38.373	-0.105	-0.076	-0.111	0.194	1.334	1.434	0.622	2.276	1.798	1.776	0.061	0.086	0.030
0.180	38.385	-0.102	-0.082	-0.091	0.206	1.359	1.430	0.602	2.153	1.801	1.776	0.061	0.083	0.022
0.180	38.388	-0.098	-0.085	-0.068	0.216	1.423	1.420	0.610	2.061	1.803	1.780	0.060	0.081	0.016
0.181	38.364	-0.101	-0.088	-0.046	0.221	1.470	1.430	0.626	2.082	1.808	1.781	0.061	0.079	0.009
0.181	38.379	-0.104	-0.085	-0.026	0.219	1.517	1.453	0.669	2.253	1.807	1.779	0.057	0.076	0.005
0.181	38.364	-0.110	-0.085	-0.007	0.214	1.531	1.507	0.698	2.442	1.807	1.771	0.057	0.072	-0.002
0.181	38.373	-0.118	-0.077	0.008	0.204	1.530	1.549	0.667	2.620	1.809	1.779	0.057	0.068	-0.009
0.181	38.354	-0.121	-0.072	0.022	0.188	1.539	1.572	0.601	2.703	1.808	1.781	0.056	0.064	-0.009
0.182	38.382	-0.120	-0.063	0.031	0.169	1.540	1.564	0.538	2.704	1.808	1.776	0.057	0.060	-0.011
0.182	38.364	-0.115	-0.056	0.040	0.146	1.535	1.489	0.504	2.607	1.806	1.773	0.057	0.058	-0.014
0.182	38.367	-0.108	-0.049	0.043	0.120	1.526	1.396	0.525	2.494	1.809	1.778	0.055	0.053	-0.012
0.182	38.364	-0.098	-0.044	0.044	0.091	1.538	1.305	0.546	2.408	1.815	1.778	0.057	0.050	-0.014
0.182	38.367	-0.090	-0.038	0.043	0.061	1.518	1.268	0.549	2.324	1.808	1.779	0.058	0.050	-0.013
0.183	38.382	-0.087	-0.029	0.039	0.030	1.537	1.260	0.535	2.280	1.818	1.783	0.058	0.049	-0.009
0.183	38.354	-0.087	-0.019	0.032	0.000	1.547	1.271	0.540	2.269	1.820	1.781	0.061	0.047	-0.006
0.183	38.373	-0.089	-0.009	0.022	-0.029	1.575	1.294	0.522	2.314	1.823	1.785	0.064	0.051	-0.002
0.183	38.348	-0.090	0.003	0.013	-0.053	1.598	1.275	0.461	2.338	1.814	1.790	0.066	0.054	0.005
0.183	38.364	-0.091	0.014	0.001	-0.077	1.628	1.240	0.374	2.343	1.822	1.797	0.072	0.055	0.015
0.184	38.354	-0.089	0.022	-0.010	-0.096	1.612	1.174	0.323	2.384	1.824	1.787	0.077	0.058	0.018
0.184	38.361	-0.083	0.028	-0.022	-0.111	1.595	1.110	0.295	2.367	1.832	1.785	0.080	0.063	0.026
0.184	38.351	-0.076	0.034	-0.032	-0.124	1.556	1.081	0.365	2.369	1.837	1.795	0.085	0.067	0.030
0.184	38.376	-0.071	0.035	-0.044	-0.131	1.549	1.105	0.386	2.302	1.834	1.796	0.092	0.077	0.038
0.184	38.348	-0.067	0.036	-0.052	-0.135	1.538	1.150	0.332	2.263	1.828	1.789	0.096	0.085	0.048
0.185	38.342	-0.064	0.035	-0.062	-0.134	1.568	1.189	0.271	2.275	1.826	1.794	0.102	0.092	0.055
0.185	38.358	-0.066	0.033	-0.071	-0.130	1.614	1.202	0.141	2.284	1.829	1.800	0.108	0.099	0.065
0.185	38.370	-0.068	0.032	-0.079	-0.123	1.666	1.197	0.078	2.284	1.829	1.793	0.111	0.107	0.074
0.185	38.342	-0.070	0.031	-0.085	-0.113	1.678	1.181	0.080	2.307	1.826	1.792	0.116	0.115	0.083
0.185	38.358	-0.073	0.034	-0.090	-0.100	1.659	1.183	0.059	2.342	1.837	1.799	0.119	0.122	0.092
0.186	38.364	-0.070	0.035	-0.091	-0.085	1.621	1.152	0.076	2.336	1.841	1.802	0.123	0.130	0.102
0.186	38.358	-0.067	0.036	-0.088	-0.067	1.552	1.132	0.069	2.313	1.837	1.800	0.126	0.136	0.109
0.186	38.333	-0.057	0.037	-0.083	-0.047	1.543	1.056	0.097	2.322	1.842	1.800	0.128	0.139	0.119
0.186	38.345	-0.055	0.034	-0.074	-0.028	1.529	0.991	0.143	2.359	1.841	1.797	0.128	0.145	0.129
0.186	38.327	-0.051	0.035	-0.061	-0.008	1.578	0.933	0.097	2.392	1.831	1.798	0.129	0.150	0.132
0.187	38.342	-0.052	0.034	-0.047	0.012	1.631	0.882	0.037	2.402	1.838	1.796	0.128	0.155	0.140
0.187	38.351	-0.053	0.034	-0.030	0.028	1.676	0.859	-0.002	2.345	1.846	1.806	0.129	0.157	0.148
0.187	38.342	-0.054	0.036	-0.012	0.046	1.693	0.902	-0.013	2.248	1.844	1.805	0.127	0.161	0.152
0.187	38.342	-0.055	0.037	0.002	0.061	1.624	0.935	-0.025	2.106	1.843	1.803	0.124	0.166	0.157
0.187	38.345	-0.052	0.040	0.017	0.071	1.545	0.993	-0.077	2.023	1.844	1.801	0.124	0.167	0.162
0.188	38.379	-0.046	0.045	0.029	0.084	1.442	0.999	-0.153	2.064	1.843	1.805	0.123	0.171	0.162
0.188	38.351	-0.037	0.052	0.038	0.090	1.407	0.967	-0.225	2.111	1.838	1.804	0.118	0.173	0.167
0.188	38.367	-0.032	0.058	0.046	0.092	1.407	0.906	-0.255	2.170	1.848	1.806	0.116	0.176	0.170
0.188	38.379	-0.027	0.063	0.051	0.092	1.462	0.889	-0.195	2.197	1.851	1.803	0.112	0.183	0.169
0.188	38.394	-0.026	0.067	0.054	0.089	1.504	0.886	-0.109	2.197	1.850	1.809	0.108	0.185	0.168
0.189	38.394	-0.026	0.068	0.053	0.085	1.514	0.914	-0.038	2.150	1.844	1.814	0.109	0.188	0.166
0.189	38.397	-0.026	0.071	0.047	0.081	1.487	0.951	-0.020	2.141	1.842	1.809	0.103	0.193	0.163
0.189	38.412	-0.024	0.070	0.040	0.078	1.411	0.984	-0.101	2.142	1.853	1.811	0.098	0.195	0.163
0.189	38.419	-0.019	0.071	0.025	0.076	1.306	1.008	-0.165	2.154	1.852	1.816	0.098	0.200	0.153
0.189	38.416	-0.011	0.071	0.012	0.077	1.197	1.027	-0.220	2.180	1.865	1.812	0.090	0.203	0.148
0.190	38.425	-0.001	0.072	-0.004	0.079	1.148	1.032	-0.231	2.179	1.856	1.819	0.086	0.206	0.141
0.190	38.446	0.009	0.073	-0.023	0.084	1.123	1.021	-0.144	2.196	1.858	1.819	0.081	0.206	0.133
0.190	38.440	0.018	0.074	-0.042	0.093	1.160	1.038	-0.116	2.187	1.859	1.821	0.073	0.207	0.124
0.190	38.449	0.022	0.076	-0.061	0.105	1.200	1.053	-0.080	2.175	1.862	1.823	0.071	0.207	0.113
0.190	38.455	0.026	0.077	-0.078	0.122	1.233	1.066	-0.065	2.202	1.860	1.822	0.058	0.210	0.102
0.191	38.449	0.028	0.078	-0.095	0.142	1.245	1.032	-0.087	2.245	1.857	1.822	0.052	0.209	0.092
0.191	38.461	0.030	0.078	-0.110	0.165	1.241	0.983	-0.128	2.279	1.862	1.833	0.043	0.209	0.081
0.191	38.449	0.031	0.080	-0.121	0.195	1.252	0.921	-0.208	2.317	1.860	1.828	0.035	0.206	0.068
0.191	38.464	0.035	0.078	-0.131	0.222	1.246	0.876	-0.276	2.318	1.864	1.824	0.026	0.202	0.058
0.191	38.440	0.042	0.076	-0.137	0.249	1.222	0.876	-0.284	2.275	1.864	1.823	0.018	0.196	0.049
0.192	38.461	0.051	0.074	-0.141	0.276	1.185	0.922	-0.247	2.186	1.861	1.826	0.008	0.193	0.036
0.192	38.446	0.059	0.073	-0.143	0.299	1.092	0.978	-0.230	2.037	1.859	1.835	-0.002	0.188	0.029
0.192	38.470	0.067	0.071	-0.144	0.318	1.020	1.007	-0.179	1.910	1.867	1.832	-0.010	0.180	0.021
0.192	38.449	0.073	0.071	-0.140	0.334	0.955	0.966	-0.174	1.859	1.872	1.832	-0.017	0.172	0.013
0.192	38.452	0.077	0.073	-0.137	0.340	0.958	0.874	-0.192	1.877	1.878	1.831	-0.028	0.168	0.012
0.193	38.449	0.080	0.077	-0.129	0.347	1.045	0.791	-0.210	1.942	1.866	1.833	-0.035	0.163	0.009
0.193	38.455	0.077	0.081	-0.121	0.345	1.186	0.734	-0.250	2.022	1.864	1.839	-0.038	0.151	0.006
0.193	38.440	0.081	0.086	-0.111	0.342	1.323	0.740	-0.291	2.086	1.872	1.835	-0.046	0.145	0.010
0.193	38.464	0.082	0.093	-0.098	0.334	1.374	0.813	-0.303	2.094	1.877	1.842	-0.052	0.134	0.005
0.193	38.486	0.088	0.100	-0.085	0.324	1.350	0.883	-0.269	2.034	1.873	1.834	-0.054	0.128	0.009
0.194	38.455	0.093	0.105	-0.068	0.311	1.252	0.922	-0.210	1.937	1.875	1.839	-0.057	0.124	0.013
0.194	38.452	0.103	0.110	-0.051	0.298	1.197	0.920	-0.199	1.863	1.874	1.847	-0.059	0.115	0.015
0.194	38.474	0.107	0.112	-0.030	0.284	1.191	0.857	-0.185	1.814	1.878	1.850	-0.063	0.110	0.019
0.194	38.458	0.111	0.117	-0.008	0.271	1.287	0.787	-0.198	1.796	1.882	1.843	-0.065	0.104	0.025
0.194	38.452	0.110	0.119	0.014	0.261	1.406	0.736	-0.226	1.833	1.876	1.847	-0.063	0.095	0.029
0.195	38.467	0.106	0.126	0.037	0.252	1.494	0.747	-0.260	1.871	1.879	1.848	-0.062	0.090	0.034
0.195	38.461	0.104	0.131	0.062	0.245	1.528	0.813	-0.251	1.904	1.887	1.848	-0.063	0.085	0.042
0.195	38.449	0.104	0.138	0.085	0.242	1.491	0.852	-0.243	1.922	1.882	1.854	-0.062	0.081	0.041
0.195	38.452	0.104	0.145	0.110	0.241	1.433	0.913	-0.165	1.924	1.884	1.853	-0.062	0.076	0.045
0.195	38.455	0.106	0.154	0.131	0.241	1.411	0.880	-0.069	1.881	1.881	1.849	-0.058	0.069	0.048
0.196	38.461	0.111	0.162	0.151	0.245	1.451	0.808	-0.047	1.828	1.879	1.848	-0.058	0.064	0.050
0.196	38.443	0.112	0.169	0.170	0.249	1.513	0.731	-0.032	1.801	1.884	1.858	-0.057	0.061	0.052
0.196	38.467	0.113	0.176	0.187	0.254	1.612	0.674	-0.140	1.790	1.888	1.855	-0.056	0.053	0.052
0.196	38.458	0.111	0.178	0.201	0.258	1.716	0.639	-0.230	1.750	1.901	1.858	-0.055	0.051	0.053
0.196	38.455	0.107	0.178	0.211	0.260	1.741	0.632	-0.308	1.711	1.896	1.856	-0.054	0.050	0.057
0.197	38.440	0.102	0.181	0.220	0.261	1.758	0.675	-0.284	1.690	1.886	1.865	-0.054	0.043	0.053
0.197	38.443	0.099	0.178	0.226	0.258	1.756	0.707	-0.185	1.599	1.899	1.858	-0.053	0.041	0.059
0.197	38.458	0.100	0.178	0.231	0.252	1.804	0.759	-0.064	1.457	1.899	1.868	-0.051	0.035	0.059
0.197	38.431	0.103	0.177	0.237	0.245	1.865	0.767	0.048	1.405	1.902	1.856	-0.053	0.032	0.063
0.197	38.458	0.106	0.176	0.241	0.232	1.940	0.724	0.100	1.392	1.896	1.868	-0.054	0.031	0.063
0.198	38.458	0.108	0.175	0.246	0.223	1.967	0.666	0.095	1.425	1.894	1.868	-0.054	0.027	0.066
0.198	38.474	0.109	0.175	0.247	0.210	1.959	0.660	0.014	1.528	1.901	1.864	-0.055	0.024	0.067
0.198	38.461	0.107	0.177	0.245	0.197	1.901	0.695	-0.097	1.635	1.898	1.860	-0.056	0.023	0.069
0.198	38.477	0.102	0.179	0.243	0.179	1.842	0.756	-0.199	1.629	1.898	1.867	-0.058	0.021	0.072
0.198	38.477	0.096	0.181	0.237	0.162	1.813	0.835	-0.256	1.577	1.901	1.873	-0.056	0.021	0.075
0.199	38.486	0.088	0.183	0.228	0.143	1.828	0.872	-0.257	1.426	1.906	1.873	-0.058	0.021	0.079
0.199	38.470	0.084	0.183	0.218	0.123	1.879	0.889	-0.284	1.262	1.910	1.875	-0.059	0.024	0.081
0.199	38.477	0.081	0.180	0.204	0.103	1.926	0.840	-0.313	1.141	1.906	1.877	-0.061	0.026	0.085
0.199	38.477	0.084	0.178	0.188	0.081	1.985	0.809	-0.319	1.046	1.911	1.875	-0.062	0.029	0.089
0.199	38.483	0.090	0.174	0.171	0.058	1.986	0.788	-0.320	1.042	1.909	1.877	-0.064	0.032	0.091
0.200	38.486	0.096	0.172	0.152	0.040	1.967	0.829	-0.310	1.074	1.915	1.882	-0.067	0.037	0.094
0.200	38.501	0.100	0.170	0.135	0.022	1.895	0.888	-0.276	1.078	1.906	1.879	-0.067	0.043	0.096
0.200	38.495	0.103	0.169	0.119	0.004	1.848	0.965	-0.232	1.056	1.902	1.884	-0.068	0.047	0.098
0.200	38.486	0.100	0.168	0.104	-0.009	1.796	1.010	-0.143	1.019	1.918	1.878	-0.072	0.054	0.100
0.200	38.480	0.094	0.169	0.086	-0.021	1.754	1.020	-0.078	1.028	1.914	1.888	-0.072	0.059	0.100
0.201	38.477	0.086	0.169	0.069	-0.028	1.749	0.980	-0.049	1.081	1.910	1.885	-0.070	0.064	0.105
0.201	38.495	0.081	0.169	0.054	-0.031	1.745	0.899	-0.093	1.160	1.907	1.882	-0.071	0.070	0.104
0.201	38.486	0.076	0.170	0.038	-0.029	1.723	0.843	-0.177	1.205	1.911	1.883	-0.070	0.077	0.104
0.201	38.480	0.080	0.168	0.022	-0.023	1.723	0.817	-0.270	1.132	1.911	1.901	-0.070	0.080	0.107
0.201	38.470	0.083	0.164	0.006	-0.011	1.680	0.849	-0.274	1.038	1.906	1.899	-0.070	0.083	0.104
0.202	38.449	0.089	0.156	-0.011	0.003	1.657	0.896	-0.207	0.920	1.917	1.889	-0.071	0.088	0.105
0.202	38.477	0.092	0.148	-0.028	0.026	1.644	0.923	-0.132	0.844	1.922	1.894	-0.070	0.089	0.110
0.202	38.467	0.093	0.140	-0.046	0.052	1.649	0.914	-0.063	0.805	1.931	1.891	-0.070	0.091	0.107
0.202	38.455	0.089	0.133	-0.062	0.081	1.690	0.884	-0.070	0.863	1.933	1.898	-0.072	0.092	0.108
0.202	38.458	0.083	0.127	-0.076	0.113	1.749	0.822	-0.100	0.854	1.934	1.899	-0.070	0.089	0.107
0.203	38.492	0.077	0.123	-0.092	0.145	1.820	0.791	-0.057	0.890	1.933	1.899	-0.069	0.089	0.107
0.203	38.455	0.069	0.122	-0.103	0.176	1.837	0.798	-0.052	0.885	1.930	1.896	-0.070	0.090	0.105
0.203	38.474	0.065	0.123	-0.115	0.210	1.807	0.862	-0.031	0.865	1.935	1.900	-0.069	0.084	0.104
0.203	38.489	0.064	0.124	-0.124	0.243	1.744	0.932	-0.062	0.826	1.929	1.898	-0.069	0.080	0.101
0.203	38.474	0.067	0.123	-0.133	0.273	1.675	1.009	0.026	0.778	1.932	1.898	-0.071	0.075	0.103
0.204	38.486	0.071	0.123	-0.139	0.304	1.576	1.041	0.096	0.751	1.932	1.909	-0.071	0.068	0.100
0.204	38.498	0.075	0.121	-0.141	0.331	1.494	0.984	0.098	0.777	1.929	1.905	-0.071	0.061	0.099
0.204	38.489	0.076	0.117	-0.139	0.356	1.443	0.882	0.041	0.847	1.936	1.903	-0.069	0.053	0.095
0.204	38.474	0.072	0.116	-0.135	0.375	1.442	0.764	-0.112	0.928	1.936	1.910	-0.068	0.045	0.093
0.204	38.486	0.069	0.114	-0.127	0.389	1.479	0.669	-0.195	0.943	1.933	1.918	-0.070	0.036	0.087
0.205	38.489	0.065	0.115	-0.115	0.398	1.567	0.604	-0.181	0.882	1.940	1.906	-0.070	0.030	0.086
0.205	38.501	0.059	0.118	-0.100	0.398	1.605	0.603	-0.075	0.769	1.949	1.910	-0.068	0.021	0.083
0.205	38.498	0.058	0.122	-0.082	0.391	1.649	0.630	0.082	0.653	1.944	1.915	-0.068	0.012	0.082
0.205	38.498	0.059	0.128	-0.060	0.375	1.681	0.645	0.159	0.528	1.947	1.912	-0.067	0.004	0.080
0.205	38.507	0.060	0.135	-0.039	0.353	1.696	0.644	0.181	0.528	1.947	1.914	-0.066	-0.002	0.077
0.206	38.495	0.066	0.140	-0.016	0.322	1.668	0.618	0.100	0.593	1.951	1.913	-0.064	-0.011	0.078
0.206	38.522	0.066	0.143	0.005	0.288	1.600	0.543	-0.037	0.647	1.939	1.914	-0.064	-0.018	0.078
0.206	38.507	0.062	0.145	0.024	0.251	1.468	0.494	-0.148	0.665	1.937	1.926	-0.062	-0.020	0.076
0.206	38.507	0.060	0.145	0.042	0.212	1.342	0.476	-0.151	0.614	1.933	1.923	-0.059	-0.029	0.078
0.206	38.513	0.058	0.141	0.057	0.171	1.270	0.487	-0.059	0.556	1.946	1.923	-0.055	-0.037	0.083
0.207	38.510	0.051	0.135	0.072	0.133	1.270	0.505	0.039	0.473	1.944	1.922	-0.051	-0.038	0.080
0.207	38.525	0.048	0.126	0.084	0.094	1.401	0.563	0.085	0.405	1.949	1.925	-0.049	-0.042	0.086
0.207	38.522	0.047	0.116	0.095	0.059	1.551	0.590	0.058	0.395	1.955	1.922	-0.041	-0.048	0.087
0.207	38.513	0.050	0.105	0.106	0.029	1.728	0.669	-0.044	0.420	1.951	1.922	-0.039	-0.050	0.089
0.207	38.516	0.055	0.091	0.115	0.005	1.818	0.727	-0.180	0.454	1.951	1.921	-0.037	-0.050	0.095
0.208	38.525	0.058	0.078	0.121	-0.014	1.799	0.802	-0.281	0.425	1.948	1.921	-0.033	-0.055	0.099
0.208	38.522	0.061	0.068	0.126	-0.027	1.702	0.851	-0.293	0.341	1.953	1.918	-0.027	-0.057	0.104
0.208	38.522	0.059	0.054	0.131	-0.030	1.568	0.900	-0.177	0.257	1.961	1.930	-0.026	-0.059	0.110
0.208	38.513	0.056	0.046	0.133	-0.026	1.488	0.953	-0.019	0.171	1.961	1.921	-0.022	-0.060	0.114
0.208	38.538	0.049	0.032	0.137	-0.015	1.493	0.970	0.102	0.161	1.959	1.930	-0.016	-0.062	0.117
0.209	38.501	0.043	0.025	0.138	0.002	1.578	0.977	0.099	0.194	1.968	1.933	-0.018	-0.063	0.121
0.209	38.531	0.040	0.018	0.137	0.026	1.694	0.968	0.040	0.257	1.952	1.925	-0.016	-0.061	0.124
0.209	38.513	0.036	0.015	0.136	0.051	1.763	0.992	-0.077	0.324	1.955	1.936	-0.015	-0.066	0.126
0.209	38.513	0.038	0.011	0.136	0.082	1.814	1.053	-0.114	0.332	1.952	1.936	-0.017	-0.067	0.131
0.209	38.513	0.038	0.005	0.136	0.110	1.763	1.140	-0.039	0.281	1.962	1.927	-0.018	-0.067	0.130
0.210	38.525	0.040	0.001	0.136	0.137	1.731	1.258	0.097	0.205	1.956	1.930	-0.017	-0.068	0.125
0.210	38.522	0.040	-0.005	0.140	0.160	1.723	1.317	0.262	0.155	1.960	1.933	-0.020	-0.068	0.128
0.210	38.522	0.036	-0.008	0.143	0.179	1.768	1.313	0.310	0.166	1.960	1.939	-0.022	-0.068	0.126
0.210	38.535	0.029	-0.010	0.146	0.194	1.860	1.246	0.252	0.204	1.968	1.937	-0.027	-0.067	0.123
0.210	38.531	0.019	-0.011	0.151	0.205	1.961	1.164	0.052	0.235	1.962	1.939	-0.031	-0.068	0.122
0.211	38.531	0.007	-0.010	0.157	0.207	1.987	1.113	-0.129	0.239	1.966	1.933	-0.032	-0.067	0.122
0.211	38.513	-0.000	-0.007	0.162	0.207	1.959	1.099	-0.175	0.201	1.958	1.941	-0.039	-0.064	0.116
0.211	38.522	-0.005	-0.005	0.167	0.199	1.878	1.173	-0.051	0.133	1.964	1.936	-0.044	-0.060	0.112
0.211	38.528	-0.006	-0.001	0.173	0.188	1.843	1.286	0.177	0.003	1.955	1.944	-0.047	-0.058	0.110
0.211	38.513	-0.005	0.000	0.174	0.172	1.860	1.395	0.381	-0.037	1.962	1.937	-0.054	-0.053	0.106
0.212	38.507	-0.004	0.000	0.179	0.154	1.901	1.448	0.427	-0.008	1.964	1.937	-0.059	-0.048	0.103
0.212	38.498	-0.005	-0.001	0.181	0.133	1.956	1.440	0.288	0.102	1.964	1.937	-0.062	-0.041	0.100
0.212	38.495	-0.009	-0.004	0.183	0.112	1.996	1.367	0.050	0.213	1.960	1.943	-0.070	-0.033	0.096
0.212	38.492	-0.019	-0.010	0.181	0.092	1.976	1.302	-0.123	0.239	1.968	1.947	-0.071	-0.028	0.095
0.212	38.504	-0.031	-0.017	0.178	0.075	1.907	1.275	-0.121	0.177	1.958	1.940	-0.074	-0.020	0.095
0.213	38.483	-0.041	-0.024	0.175	0.063	1.830	1.288	-0.035	0.069	1.961	1.949	-0.080	-0.013	0.092
0.213	38.498	-0.051	-0.034	0.170	0.058	1.745	1.310	0.160	-0.015	1.966	1.951	-0.084	-0.005	0.092
0.213	38.467	-0.057	-0.040	0.163	0.059	1.735	1.317	0.284	-0.034	1.965	1.951	-0.089	0.002	0.091
0.213	38.486	-0.061	-0.049	0.153	0.066	1.766	1.294	0.267	0.000	1.969	1.943	-0.088	0.008	0.090
0.213	38.498	-0.062	-0.057	0.142	0.086	1.789	1.243	0.140	0.073	1.961	1.945	-0.091	0.015	0.090
0.214	38.474	-0.063	-0.066	0.129	0.111	1.790	1.154	-0.013	0.105	1.961	1.947	-0.092	0.020	0.091
0.214	38.480	-0.066	-0.074	0.116	0.145	1.736	1.079	-0.088	0.085	1.969	1.947	-0.095	0.023	0.093
0.214	38.467	-0.069	-0.081	0.104	0.185	1.637	1.006	-0.012	-0.032	1.963	1.953	-0.094	0.029	0.092
0.214	38.464	-0.076	-0.090	0.094	0.229	1.512	0.951	0.156	-0.218	1.972	1.950	-0.098	0.031	0.094
0.214	38.452	-0.083	-0.098	0.084	0.273	1.441	0.934	0.366	-0.299	1.972	1.941	-0.098	0.034	0.094
0.215	38.449	-0.087	-0.107	0.077	0.320	1.380	0.912	0.521	-0.234	1.961	1.951	-0.099	0.037	0.091
0.215	38.467	-0.092	-0.112	0.072	0.362	1.384	0.883	0.497	-0.083	1.963	1.951	-0.099	0.033	0.096
0.215	38.443	-0.093	-0.117	0.071	0.401	1.395	0.836	0.307	0.038	1.968	1.952	-0.099	0.030	0.098
0.215	38.461	-0.095	-0.120	0.070	0.432	1.427	0.796	0.086	0.116	1.970	1.954	-0.100	0.027	0.098
0.215	38.428	-0.094	-0.121	0.071	0.456	1.451	0.774	-0.012	0.077	1.963	1.955	-0.101	0.022	0.103
0.216	38.446	-0.095	-0.120	0.074	0.468	1.455	0.797	0.093	-0.068	1.968	1.952	-0.099	0.016	0.107
0.216	38.449	-0.096	-0.119	0.075	0.471	1.416	0.845	0.289	-0.193	1.974	1.956	-0.095	0.008	0.109
0.216	38.434	-0.096	-0.116	0.078	0.467	1.370	0.887	0.458	-0.257	1.974	1.949	-0.097	0.000	0.114
0.216	38.443	-0.103	-0.112	0.081	0.453	1.289	0.925	0.574	-0.214	1.965	1.958	-0.092	-0.010	0.115
0.216	38.428	-0.105	-0.108	0.082	0.427	1.220	0.909	0.556	-0.107	1.965	1.954	-0.089	-0.022	0.119
0.217	38.446	-0.108	-0.107	0.087	0.395	1.140	0.856	0.423	0.012	1.970	1.951	-0.089	-0.028	0.125
0.217	38.458	-0.111	-0.103	0.091	0.357	1.063	0.834	0.222	0.044	1.969	1.953	-0.085	-0.037	0.125
0.217	38.455	-0.115	-0.104	0.095	0.316	1.023	0.846	0.124	0.014	1.972	1.958	-0.081	-0.048	0.130
0.217	38.449	-0.113	-0.103	0.101	0.272	1.022	0.888	0.146	-0.059	1.972	1.957	-0.077	-0.057	0.133
0.217	38.446	-0.112	-0.101	0.108	0.228	1.064	0.993	0.308	-0.137	1.966	1.961	-0.071	-0.066	0.136
0.218	38.452	-0.114	-0.102	0.114	0.186	1.093	1.080	0.484	-0.151	1.972	1.962	-0.067	-0.073	0.136
0.218	38.452	-0.115	-0.100	0.123	0.147	1.094	1.110	0.579	-0.075	1.973	1.957	-0.061	-0.082	0.141
0.218	38.437	-0.118	-0.100	0.133	0.112	1.048	1.111	0.540	0.033	1.968	1.951	-0.055	-0.088	0.140
0.218	38.452	-0.123	-0.101	0.141	0.081	0.990	1.095	0.389	0.093	1.972	1.950	-0.050	-0.093	0.139
0.218	38.449	-0.128	-0.104	0.151	0.057	0.910	1.092	0.235	0.113	1.974	1.952	-0.044	-0.098	0.139
0.219	38.434	-0.133	-0.107	0.161	0.038	0.858	1.123	0.166	0.058	1.976	1.959	-0.038	-0.103	0.140
0.219	38.443	-0.131	-0.111	0.170	0.025	0.846	1.207	0.180	-0.012	1.972	1.961	-0.031	-0.105	0.137
0.219	38.443	-0.131	-0.118	0.182	0.018	0.859	1.296	0.318	-0.090	1.976	1.949	-0.025	-0.106	0.138
0.219	38.428	-0.128	-0.125	0.194	0.017	0.868	1.370	0.441	-0.173	1.976	1.958	-0.018	-0.108	0.135
0.219	38.461	-0.124	-0.133	0.206	0.021	0.868	1.395	0.453	-0.232	1.979	1.955	-0.013	-0.107	0.134
0.220	38.443	-0.122	-0.143	0.219	0.030	0.838	1.374	0.409	-0.193	1.977	1.958	-0.008	-0.107	0.134
0.220	38.422	-0.124	-0.152	0.231	0.047	0.812	1.334	0.294	-0.148	1.982	1.957	0.000	-0.109	0.131
0.220	38.440	-0.128	-0.158	0.242	0.062	0.802	1.289	0.195	-0.133	1.972	1.958	0.002	-0.105	0.133
0.220	38.449	-0.134	-0.165	0.254	0.086	0.786	1.297	0.217	-0.147	1.979	1.955	0.010	-0.106	0.135
0.220	38.434	-0.138	-0.171	0.264	0.109	0.816	1.357	0.343	-0.158	1.977	1.959	0.013	-0.104	0.132
0.221	38.422	-0.138	-0.176	0.272	0.136	0.856	1.464	0.543	-0.228	1.969	1.955	0.018	-0.102	0.131
0.221	38.461	-0.135	-0.180	0.278	0.160	0.902	1.562	0.699	-0.198	1.977	1.952	0.025	-0.102	0.133
0.221	38.422	-0.129	-0.185	0.281	0.185	0.936	1.609	0.712	-0.112	1.975	1.955	0.027	-0.100	0.134
0.221	38.434	-0.124	-0.190	0.282	0.209	0.944	1.608	0.618	0.014	1.982	1.950	0.030	-0.097	0.134
0.221	38.422	-0.117	-0.196	0.284	0.230	0.906	1.579	0.454	0.084	1.977	1.957	0.036	-0.096	0.135
0.222	38.428	-0.122	-0.201	0.278	0.246	0.860	1.537	0.368	0.072	1.976	1.950	0.039	-0.095	0.135
0.222	38.425	-0.128	-0.206	0.271	0.261	0.825	1.534	0.378	-0.020	1.976	1.957	0.041	-0.092	0.135
0.222	38.434	-0.139	-0.211	0.263	0.268	0.790	1.522	0.520	-0.166	1.984	1.954	0.046	-0.089	0.138
0.222	38.434	-0.146	-0.216	0.251	0.272	0.768	1.543	0.689	-0.277	1.980	1.954	0.051	-0.086	0.139
0.222	38.412	-0.154	-0.216	0.241	0.270	0.765	1.576	0.759	-0.270	1.980	1.948	0.050	-0.082	0.138
0.223	38.425	-0.154	-0.219	0.230	0.262	0.812	1.595	0.705	-0.140	1.984	1.952	0.055	-0.079	0.136
0.223	38.443	-0.151	-0.223	0.222	0.253	0.868	1.589	0.597	0.058	1.983	1.950	0.057	-0.073	0.137
0.223	38.406	-0.142	-0.225	0.209	0.238	0.921	1.551	0.470	0.217	1.976	1.950	0.060	-0.069	0.137
0.223	38.431	-0.136	-0.225	0.201	0.221	0.937	1.510	0.427	0.291	1.980	1.948	0.064	-0.065	0.134
0.223	38.452	-0.131	-0.223	0.195	0.202	0.933	1.471	0.470	0.257	1.982	1.947	0.066	-0.057	0.132
0.224	38.412	-0.132	-0.224	0.192	0.181	0.860	1.458	0.623	0.161	1.983	1.946	0.068	-0.050	0.135
0.224	38.452	-0.136	-0.222	0.190	0.161	0.828	1.451	0.809	0.145	1.974	1.947	0.070	-0.044	0.132
0.224	38.419	-0.142	-0.219	0.189	0.142	0.810	1.447	0.874	0.191	1.980	1.956	0.074	-0.033	0.130
0.224	38.422	-0.147	-0.214	0.188	0.125	0.826	1.409	0.805	0.319	1.980	1.952	0.074	-0.028	0.129
0.224	38.406	-0.150	-0.209	0.187	0.115	0.868	1.379	0.630	0.445	1.986	1.951	0.077	-0.022	0.128
0.225	38.422	-0.145	-0.205	0.185	0.108	0.880	1.325	0.471	0.482	1.977	1.947	0.079	-0.010	0.127
0.225	38.419	-0.141	-0.199	0.183	0.105	0.866	1.301	0.444	0.456	1.977	1.955	0.080	-0.003	0.126
0.225	38.422	-0.132	-0.194	0.181	0.111	0.835	1.296	0.563	0.377	1.985	1.948	0.083	0.006	0.124
0.225	38.419	-0.125	-0.190	0.180	0.120	0.790	1.334	0.749	0.287	1.988	1.947	0.082	0.016	0.122
0.225	38.428	-0.120	-0.186	0.175	0.136	0.762	1.371	0.917	0.232	1.978	1.949	0.082	0.027	0.122
0.226	38.416	-0.121	-0.183	0.172	0.156	0.732	1.350	0.958	0.268	1.975	1.943	0.083	0.033	0.122
0.226	38.440	-0.126	-0.180	0.163	0.181	0.730	1.280	0.847	0.367	1.981	1.944	0.084	0.040	0.122
0.226	38.412	-0.129	-0.179	0.156	0.206	0.742	1.186	0.704	0.458	1.979	1.945	0.081	0.046	0.123
0.226	38.412	-0.133	-0.176	0.148	0.236	0.703	1.078	0.522	0.516	1.986	1.945	0.080	0.052	0.123
0.226	38.419	-0.137	-0.178	0.138	0.266	0.614	1.020	0.410	0.492	1.979	1.941	0.081	0.057	0.123
0.227	38.409	-0.131	-0.178	0.131	0.293	0.504	1.056	0.419	0.401	1.985	1.940	0.078	0.058	0.125
0.227	38.403	-0.122	-0.185	0.122	0.317	0.369	1.093	0.582	0.368	1.987	1.941	0.075	0.063	0.125
0.227	38.406	-0.116	-0.186	0.118	0.337	0.282	1.193	0.738	0.363	1.975	1.948	0.070	0.060	0.124
0.227	38.394	-0.108	-0.193	0.114	0.349	0.277	1.196	0.810	0.450	1.981	1.943	0.067	0.060	0.127
0.227	38.388	-0.104	-0.197	0.114	0.355	0.313	1.160	0.771	0.608	1.981	1.947	0.063	0.061	0.126
0.228	38.425	-0.103	-0.201	0.117	0.354	0.390	1.076	0.668	0.751	1.972	1.942	0.058	0.056	0.129
0.228	38.400	-0.103	-0.202	0.123	0.344	0.480	0.984	0.643	0.820	1.982	1.936	0.054	0.052	0.124
0.228	38.385	-0.108	-0.205	0.130	0.328	0.510	0.913	0.707	0.798	1.986	1.942	0.048	0.049	0.123
0.228	38.385	-0.109	-0.204	0.140	0.304	0.476	0.934	0.788	0.677	1.982	1.940	0.045	0.041	0.124
0.228	38.382	-0.110	-0.202	0.152	0.278	0.397	0.969	0.868	0.558	1.978	1.936	0.040	0.035	0.123
0.229	38.382	-0.106	-0.201	0.164	0.246	0.305	1.045	0.916	0.522	1.981	1.937	0.034	0.030	0.121
0.229	38.370	-0.100	-0.198	0.179	0.213	0.218	1.087	0.960	0.597	1.974	1.940	0.029	0.020	0.120
0.229	38.370	-0.091	-0.196	0.191	0.179	0.179	1.072	0.902	0.739	1.978	1.941	0.024	0.013	0.116
0.229	38.382	-0.084	-0.193	0.206	0.147	0.150	1.028	0.812	0.832	1.968	1.943	0.021	0.008	0.114
0.229	38.354	-0.078	-0.189	0.220	0.116	0.155	0.994	0.748	0.928	1.974	1.947	0.018	-0.004	0.114
0.230	38.358	-0.075	-0.184	0.231	0.089	0.161	1.009	0.772	0.936	1.974	1.944	0.015	-0.009	0.109
0.230	38.364	-0.074	-0.178	0.241	0.063	0.154	1.071	0.870	0.950	1.980	1.936	0.010	-0.017	0.107
0.230	38.321	-0.075	-0.171	0.247	0.046	0.144	1.172	0.994	0.973	1.979	1.936	0.010	-0.024	0.104
0.230	38.327	-0.075	-0.163	0.253	0.034	0.114	1.227	1.023	1.017	1.974	1.926	0.006	-0.029	0.102
0.230	38.327	-0.073	-0.154	0.253	0.029	0.097	1.246	1.021	1.079	1.969	1.932	0.004	-0.031	0.098
0.231	38.336	-0.067	-0.145	0.251	0.032	0.081	1.208	0.992	1.131	1.972	1.934	0.001	-0.040	0.098
0.231	38.339	-0.061	-0.136	0.244	0.042	0.052	1.150	0.938	1.084	1.976	1.929	0.002	-0.043	0.097
0.231	38.330	-0.052	-0.129	0.236	0.057	0.016	1.119	0.895	1.008	1.978	1.934	0.001	-0.049	0.096
0.231	38.345	-0.044	-0.122	0.227	0.080	-0.044	1.145	0.862	0.921	1.976	1.936	0.002	-0.051	0.094
0.231	38.336	-0.044	-0.117	0.215	0.103	-0.132	1.221	0.862	0.856	1.974	1.935	0.004	-0.055	0.093
0.232	38.321	-0.043	-0.114	0.201	0.129	-0.190	1.329	0.884	0.887	1.969	1.931	0.001	-0.058	0.095
0.232	38.327	-0.045	-0.109	0.189	0.155	-0.223	1.396	0.935	0.983	1.968	1.936	0.001	-0.061	0.095
0.232	38.324	-0.049	-0.105	0.176	0.180	-0.215	1.414	0.973	1.125	1.975	1.931	0.001	-0.062	0.098
0.232	38.327	-0.048	-0.101	0.163	0.200	-0.166	1.337	0.982	1.261	1.982	1.931	0.001	-0.065	0.098
0.232	38.339	-0.046	-0.097	0.150	0.216	-0.140	1.205	1.016	1.366	1.980	1.928	0.001	-0.067	0.094
0.233	38.339	-0.041	-0.092	0.136	0.227	-0.081	1.108	1.057	1.429	1.975	1.931	0.001	-0.067	0.097
0.233	38.367	-0.035	-0.088	0.124	0.233	-0.050	1.107	1.123	1.446	1.971	1.927	0.002	-0.068	0.100
0.233	38.351	-0.027	-0.084	0.113	0.233	-0.016	1.174	1.137	1.457	1.980	1.925	0.002	-0.069	0.101
0.233	38.345	-0.026	-0.081	0.106	0.229	-0.022	1.259	1.119	1.431	1.970	1.922	0.002	-0.067	0.101
0.233	38.345	-0.027	-0.078	0.098	0.221	-0.034	1.285	1.067	1.438	1.969	1.926	0.002	-0.069	0.105
0.234	38.370	-0.030	-0.075	0.091	0.208	-0.071	1.252	0.989	1.468	1.969	1.927	0.002	-0.070	0.108
0.234	38.364	-0.034	-0.072	0.087	0.193	-0.097	1.150	0.911	1.522	1.969	1.921	0.006	-0.066	0.105
0.234	38.358	-0.035	-0.067	0.083	0.170	-0.105	1.055	0.834	1.559	1.976	1.926	0.006	-0.065	0.103
0.234	38.379	-0.033	-0.065	0.081	0.147	-0.070	1.013	0.808	1.581	1.975	1.931	0.010	-0.066	0.104
0.234	38.364	-0.028	-0.059	0.081	0.119	-0.041	1.071	0.850	1.586	1.969	1.927	0.013	-0.058	0.103
0.235	38.354	-0.019	-0.054	0.078	0.093	0.025	1.159	0.982	1.616	1.967	1.920	0.011	-0.052	0.102
0.235	38.370	-0.010	-0.047	0.079	0.066	0.040	1.227	1.087	1.659	1.972	1.929	0.014	-0.049	0.101
0.235	38.397	-0.005	-0.041	0.079	0.041	0.040	1.228	1.088	1.738	1.972	1.917	0.017	-0.042	0.098
0.235	38.385	-0.001	-0.035	0.079	0.019	0.004	1.150	0.991	1.854	1.972	1.920	0.019	-0.035	0.100
0.235	38.382	-0.003	-0.029	0.082	-0.001	-0.035	1.017	0.835	1.899	1.975	1.918	0.022	-0.028	0.099
0.236	38.382	-0.004	-0.025	0.084	-0.012	-0.029	0.905	0.778	1.881	1.974	1.911	0.025	-0.020	0.098
0.236	38.416	-0.008	-0.024	0.086	-0.018	0.007	0.825	0.779	1.761	1.964	1.917	0.028	-0.010	0.095
0.236	38.391	-0.008	-0.020	0.086	-0.019	0.032	0.817	0.848	1.653	1.969	1.916	0.033	-0.001	0.094
0.236	38.394	-0.003	-0.020	0.083	-0.014	0.060	0.876	0.923	1.597	1.966	1.918	0.032	0.008	0.093
0.236	38.385	0.006	-0.020	0.078	-0.001	0.013	0.910	0.958	1.626	1.970	1.920	0.034	0.020	0.091
0.237	38.388	0.011	-0.017	0.071	0.016	-0.043	0.919	0.989	1.767	1.970	1.914	0.040	0.028	0.089
0.237	38.382	0.021	-0.019	0.063	0.039	-0.041	0.815	0.968	1.972	1.974	1.912	0.037	0.036	0.089
0.237	38.406	0.024	-0.018	0.052	0.066	-0.048	0.700	0.953	2.150	1.967	1.913	0.039	0.049	0.083
0.237	38.385	0.024	-0.015	0.041	0.095	-0.043	0.601	0.965	2.222	1.970	1.908	0.038	0.056	0.083
0.237	38.379	0.022	-0.015	0.026	0.130	-0.069	0.548	1.044	2.215	1.972	1.919	0.037	0.067	0.079
0.238	38.388	0.018	-0.010	0.012	0.167	-0.105	0.531	1.152	2.110	1.964	1.917	0.036	0.074	0.073
0.238	38.379	0.018	-0.008	-0.003	0.205	-0.128	0.545	1.169	1.990	1.970	1.920	0.035	0.080	0.077
0.238	38.394	0.020	-0.005	-0.018	0.244	-0.142	0.570	1.143	1.922	1.965	1.913	0.034	0.087	0.073
0.238	38.416	0.026	-0.002	-0.033	0.282	-0.117	0.569	1.023	1.904	1.970	1.910	0.030	0.095	0.070
0.238	38.394	0.033	0.002	-0.046	0.314	-0.045	0.554	0.853	1.934	1.976	1.918	0.027	0.098	0.069
0.239	38.406	0.043	0.004	-0.058	0.345	0.029	0.500	0.718	1.964	1.980	1.907	0.023	0.101	0.066
0.239	38.409	0.050	0.006	-0.068	0.370	0.092	0.470	0.633	1.960	1.958	1.908	0.021	0.106	0.064
0.239	38.370	0.056	0.009	-0.075	0.385	0.105	0.439	0.650	1.913	1.972	1.908	0.018	0.109	0.062
0.239	38.391	0.060	0.011	-0.078	0.396	0.076	0.405	0.714	1.891	1.969	1.909	0.015	0.109	0.063
0.239	38.382	0.060	0.015	-0.078	0.400	-0.037	0.389	0.787	1.924	1.962	1.910	0.010	0.114	0.061
0.240	38.388	0.059	0.024	-0.078	0.399	-0.122	0.409	0.853	2.002	1.971	1.907	0.005	0.117	0.062
0.240	38.385	0.058	0.031	-0.073	0.394	-0.193	0.419	0.857	2.150	1.970	1.909	0.002	0.117	0.065
0.240	38.385	0.059	0.041	-0.066	0.385	-0.177	0.452	0.808	2.303	1.968	1.901	-0.001	0.117	0.065
0.240	38.376	0.064	0.047	-0.055	0.374	-0.140	0.470	0.777	2.400	1.965	1.911	-0.006	0.118	0.066
0.240	38.388	0.071	0.058	-0.041	0.363	-0.133	0.466	0.742	2.414	1.977	1.908	-0.006	0.118	0.073
0.241	38.385	0.080	0.064	-0.027	0.352	-0.192	0.420	0.729	2.339	1.965	1.910	-0.005	0.118	0.076
0.241	38.379	0.089	0.071	-0.009	0.340	-0.277	0.379	0.732	2.203	1.964	1.913	-0.011	0.118	0.081
0.241	38.388	0.096	0.075	0.009	0.331	-0.351	0.294	0.725	2.080	1.975	1.911	-0.014	0.119	0.084
0.241	38.382	0.097	0.079	0.028	0.322	-0.368	0.231	0.741	2.072	1.978	1.912	-0.017	0.119	0.089
0.241	38.382	0.096	0.081	0.050	0.316	-0.314	0.194	0.751	2.128	1.975	1.913	-0.018	0.117	0.094
0.242	38.373	0.096	0.083	0.070	0.314	-0.250	0.163	0.746	2.253	1.964	1.906	-0.022	0.115	0.097
0.242	38.370	0.090	0.084	0.090	0.314	-0.174	0.171	0.681	2.354	1.969	1.903	-0.023	0.117	0.100
0.242	38.391	0.094	0.086	0.109	0.316	-0.140	0.180	0.584	2.391	1.979	1.907	-0.026	0.116	0.104
0.242	38.394	0.098	0.089	0.127	0.320	-0.145	0.191	0.538	2.402	1.975	1.911	-0.026	0.111	0.110
0.242	38.394	0.104	0.089	0.142	0.327	-0.187	0.175	0.547	2.338	1.975	1.904	-0.030	0.112	0.111
0.243	38.379	0.111	0.092	0.155	0.338	-0.232	0.166	0.573	2.235	1.974	1.903	-0.033	0.107	0.115
0.243	38.382	0.116	0.092	0.166	0.348	-0.251	0.135	0.657	2.203	1.976	1.907	-0.035	0.103	0.119
0.243	38.385	0.119	0.094	0.176	0.364	-0.199	0.125	0.736	2.240	1.972	1.913	-0.036	0.101	0.117
0.243	38.367	0.121	0.093	0.181	0.375	-0.112	0.093	0.795	2.305	1.969	1.908	-0.041	0.098	0.117
0.243	38.376	0.116	0.092	0.185	0.388	-0.025	0.075	0.749	2.381	1.980	1.908	-0.042	0.096	0.118
0.244	38.373	0.116	0.091	0.188	0.399	0.001	0.094	0.644	2.427	1.974	1.910	-0.045	0.093	0.118
0.244	38.382	0.119	0.089	0.193	0.408	-0.014	0.113	0.536	2.412	1.990	1.910	-0.051	0.079	0.115
0.244	38.388	0.124	0.087	0.195	0.416	-0.072	0.142	0.532	2.373	1.983	1.897	-0.052	0.086	0.118
0.244	38.358	0.133	0.085	0.200	0.419	-0.123	0.148	0.572	2.322	1.987	1.906	-0.057	0.084	0.118
0.244	38.379	0.139	0.084	0.205	0.420	-0.146	0.136	0.654	2.269	1.980	1.906	-0.060	0.078	0.116
0.245	38.370	0.145	0.085	0.208	0.416	-0.143	0.101	0.720	2.239	1.982	1.900	-0.063	0.073	0.116
0.245	38.376	0.146	0.089	0.211	0.410	-0.082	0.066	0.725	2.219	1.980	1.904	-0.066	0.069	0.115
0.245	38.364	0.145	0.090	0.213	0.400	-0.035	0.023	0.634	2.268	1.982	1.905	-0.068	0.065	0.115
0.245	38.364	0.139	0.097	0.217	0.389	0.023	-0.008	0.502	2.299	1.981	1.905	-0.071	0.063	0.116
0.245	38.354	0.135	0.103	0.221	0.376	0.025	-0.021	0.441	2.302	1.980	1.904	-0.073	0.062	0.113
0.246	38.370	0.130	0.110	0.225	0.361	0.020	0.020	0.502	2.301	1.988	1.902	-0.076	0.060	0.110
0.246	38.345	0.131	0.115	0.230	0.346	0.014	0.052	0.574	2.270	1.984	1.900	-0.078	0.058	0.111
0.246	38.351	0.130	0.121	0.234	0.329	0.008	0.029	0.582	2.268	1.982	1.901	-0.082	0.058	0.110
0.246	38.370	0.135	0.124	0.240	0.312	0.013	-0.040	0.514	2.307	1.973	1.902	-0.082	0.058	0.108
0.246	38.345	0.142	0.128	0.250	0.292	0.002	-0.163	0.461	2.386	1.976	1.906	-0.085	0.057	0.109
0.247	38.336	0.144	0.131	0.258	0.274	-0.004	-0.293	0.385	2.477	1.975	1.907	-0.089	0.060	0.106
0.247	38.342	0.148	0.136	0.267	0.255	-0.028	-0.388	0.311	2.525	1.987	1.902	-0.088	0.061	0.104
0.247	38.351	0.150	0.140	0.275	0.237	-0.011	-0.393	0.280	2.474	1.983	1.902	-0.090	0.065	0.104
0.247	38.364	0.147	0.144	0.282	0.224	0.017	-0.313	0.310	2.311	1.979	1.906	-0.090	0.065	0.102
0.247	38.333	0.147	0.150	0.285	0.213	0.102	-0.172	0.353	2.133	1.992	1.908	-0.091	0.068	0.099
0.248	38.348	0.141	0.154	0.285	0.205	0.194	-0.054	0.415	2.075	1.985	1.897	-0.093	0.072	0.100
0.248	38.318	0.137	0.159	0.280	0.206	0.268	-0.002	0.413	2.074	1.978	1.904	-0.092	0.073	0.100
0.248	38.336	0.135	0.165	0.273	0.208	0.264	-0.064	0.374	2.157	1.983	1.905	-0.089	0.079	0.095
0.248	38.327	0.136	0.168	0.262	0.218	0.217	-0.160	0.282	2.327	1.985	1.902	-0.091	0.082	0.094
0.248	38.345	0.138	0.173	0.252	0.230	0.114	-0.262	0.215	2.425	1.978	1.904	-0.092	0.085	0.090
0.249	38.348	0.140	0.177	0.234	0.247	0.023	-0.313	0.252	2.449	1.981	1.906	-0.086	0.089	0.087
0.249	38.327	0.142	0.180	0.219	0.266	-0.025	-0.308	0.372	2.435	1.977	1.909	-0.087	0.092	0.085
0.249	38.333	0.142	0.185	0.203	0.290	-0.003	-0.262	0.457	2.381	1.981	1.909	-0.083	0.096	0.081
0.249	38.324	0.140	0.192	0.186	0.314	0.071	-0.225	0.543	2.357	1.976	1.910	-0.083	0.097	0.079
0.249	38.339	0.139	0.201	0.171	0.339	0.138	-0.218	0.487	2.414	1.991	1.912	-0.081	0.100	0.077
0.250	38.333	0.137	0.216	0.158	0.365	0.133	-0.253	0.399	2.471	1.982	1.912	-0.080	0.102	0.072
0.250	38.345	0.135	0.225	0.143	0.389	0.116	-0.302	0.331	2.545	1.991	1.905	-0.079	0.101	0.068
