Comment:	20231003 sppedbump
Time	Vehicle Speed	FL Sprung acceleration	FR Sprung acceleration	RL Sprung acceleration	RR Sprung acceleration	FL Unsprung acceleration	FR Unsprung acceleration	RL Unsprung acceleration	RR Unsprung acceleration	Bellow pressure RL	Bellow pressure RR	Acceleration X	Acceleration Y	Acceleration Z
s	km/h	gn	gn	gn	gn	gn	gn	gn	gn	bar	bar	g	g	g
0.000	19.580	-0.084	-0.009	0.016	0.131	1.137	0.844	0.145	1.222	1.965	1.954	-0.080	-0.103	0.096
0.000	19.571	-0.079	-0.009	0.020	0.135	1.147	0.865	0.099	1.271	1.966	1.948	-0.079	-0.104	0.098
0.000	19.559	-0.078	-0.009	0.023	0.140	1.142	0.888	0.092	1.245	1.956	1.949	-0.077	-0.104	0.099
0.001	19.562	-0.076	-0.010	0.024	0.146	1.141	0.906	0.098	1.235	1.970	1.952	-0.077	-0.106	0.101
0.001	19.528	-0.076	-0.013	0.025	0.152	1.155	0.889	0.147	1.215	1.965	1.951	-0.075	-0.105	0.102
0.001	19.550	-0.077	-0.014	0.027	0.157	1.166	0.849	0.218	1.208	1.961	1.949	-0.075	-0.107	0.101
0.001	19.537	-0.077	-0.016	0.024	0.163	1.196	0.824	0.269	1.222	1.959	1.942	-0.073	-0.106	0.102
0.001	19.547	-0.076	-0.018	0.024	0.168	1.184	0.781	0.276	1.207	1.955	1.942	-0.074	-0.107	0.101
0.002	19.553	-0.073	-0.017	0.019	0.172	1.180	0.811	0.250	1.199	1.956	1.948	-0.073	-0.107	0.097
0.002	19.534	-0.070	-0.019	0.021	0.177	1.151	0.851	0.262	1.184	1.952	1.947	-0.075	-0.106	0.097
0.002	19.565	-0.068	-0.022	0.015	0.180	1.111	0.873	0.260	1.166	1.957	1.942	-0.073	-0.105	0.096
0.002	19.543	-0.066	-0.023	0.012	0.181	1.092	0.893	0.290	1.161	1.966	1.951	-0.074	-0.105	0.093
0.002	19.553	-0.066	-0.027	0.008	0.182	1.071	0.886	0.328	1.159	1.954	1.937	-0.074	-0.102	0.088
0.003	19.550	-0.068	-0.027	0.007	0.180	1.059	0.844	0.337	1.186	1.958	1.952	-0.077	-0.101	0.084
0.003	19.543	-0.067	-0.030	0.003	0.179	1.062	0.805	0.357	1.196	1.953	1.952	-0.077	-0.101	0.081
0.003	19.559	-0.069	-0.030	-0.001	0.176	1.051	0.780	0.351	1.177	1.951	1.948	-0.079	-0.098	0.075
0.003	19.540	-0.066	-0.030	-0.002	0.174	1.057	0.775	0.365	1.162	1.957	1.955	-0.081	-0.096	0.071
0.003	19.531	-0.063	-0.030	-0.008	0.169	1.044	0.799	0.340	1.124	1.956	1.947	-0.081	-0.094	0.066
0.004	19.531	-0.059	-0.028	-0.009	0.165	1.007	0.824	0.328	1.088	1.957	1.949	-0.082	-0.095	0.062
0.004	19.516	-0.054	-0.024	-0.012	0.162	0.992	0.850	0.326	1.091	1.955	1.948	-0.084	-0.090	0.058
0.004	19.531	-0.053	-0.018	-0.013	0.160	0.965	0.853	0.336	1.120	1.948	1.945	-0.085	-0.090	0.052
0.004	19.516	-0.052	-0.015	-0.015	0.156	0.972	0.826	0.346	1.165	1.951	1.944	-0.087	-0.085	0.049
0.004	19.540	-0.052	-0.008	-0.018	0.155	0.975	0.787	0.328	1.184	1.951	1.943	-0.088	-0.085	0.046
0.005	19.522	-0.049	-0.003	-0.021	0.153	0.996	0.764	0.340	1.166	1.956	1.947	-0.090	-0.082	0.044
0.005	19.528	-0.052	0.003	-0.025	0.152	1.006	0.746	0.366	1.134	1.947	1.946	-0.094	-0.077	0.043
0.005	19.519	-0.052	0.010	-0.030	0.153	0.986	0.749	0.421	1.082	1.948	1.940	-0.093	-0.073	0.043
0.005	19.513	-0.051	0.016	-0.034	0.154	0.968	0.754	0.445	1.065	1.953	1.950	-0.098	-0.069	0.042
0.005	19.513	-0.053	0.023	-0.040	0.156	0.920	0.755	0.477	1.088	1.949	1.948	-0.101	-0.065	0.043
0.006	19.507	-0.053	0.029	-0.047	0.159	0.905	0.765	0.477	1.117	1.944	1.948	-0.103	-0.061	0.043
0.006	19.519	-0.055	0.033	-0.056	0.163	0.896	0.726	0.453	1.173	1.953	1.945	-0.105	-0.055	0.046
0.006	19.501	-0.056	0.039	-0.065	0.167	0.876	0.710	0.415	1.198	1.945	1.948	-0.108	-0.053	0.048
0.006	19.510	-0.057	0.044	-0.075	0.170	0.888	0.683	0.413	1.202	1.948	1.945	-0.111	-0.047	0.051
0.006	19.495	-0.058	0.048	-0.086	0.174	0.884	0.707	0.386	1.163	1.946	1.943	-0.113	-0.044	0.056
0.007	19.507	-0.058	0.050	-0.096	0.177	0.889	0.736	0.365	1.138	1.941	1.949	-0.117	-0.038	0.061
0.007	19.501	-0.058	0.053	-0.104	0.179	0.898	0.767	0.384	1.136	1.950	1.940	-0.120	-0.037	0.065
0.007	19.513	-0.059	0.054	-0.117	0.181	0.899	0.778	0.401	1.173	1.944	1.942	-0.122	-0.033	0.070
0.007	19.495	-0.058	0.053	-0.125	0.182	0.916	0.771	0.410	1.215	1.947	1.945	-0.125	-0.030	0.075
0.007	19.525	-0.059	0.053	-0.133	0.182	0.928	0.762	0.405	1.266	1.949	1.953	-0.129	-0.029	0.079
0.008	19.501	-0.055	0.052	-0.143	0.179	0.957	0.747	0.402	1.280	1.949	1.948	-0.131	-0.025	0.084
0.008	19.504	-0.056	0.052	-0.147	0.178	0.986	0.739	0.404	1.273	1.944	1.949	-0.133	-0.024	0.089
0.008	19.498	-0.054	0.051	-0.155	0.174	0.992	0.757	0.413	1.273	1.936	1.941	-0.133	-0.021	0.094
0.008	19.507	-0.052	0.050	-0.158	0.170	1.025	0.784	0.432	1.264	1.945	1.945	-0.137	-0.023	0.096
0.008	19.519	-0.053	0.046	-0.163	0.166	1.011	0.809	0.433	1.268	1.945	1.935	-0.138	-0.018	0.099
0.009	19.522	-0.052	0.045	-0.163	0.158	1.021	0.829	0.456	1.290	1.936	1.942	-0.141	-0.018	0.102
0.009	19.516	-0.053	0.041	-0.167	0.151	1.014	0.824	0.431	1.300	1.944	1.943	-0.139	-0.017	0.103
0.009	19.516	-0.054	0.038	-0.167	0.142	1.023	0.809	0.432	1.305	1.932	1.939	-0.141	-0.016	0.103
0.009	19.513	-0.053	0.038	-0.165	0.133	1.023	0.777	0.443	1.273	1.932	1.941	-0.140	-0.015	0.105
0.009	19.522	-0.053	0.036	-0.165	0.122	1.040	0.747	0.444	1.252	1.926	1.939	-0.141	-0.017	0.104
0.010	19.531	-0.052	0.037	-0.157	0.111	1.035	0.757	0.482	1.223	1.937	1.939	-0.140	-0.020	0.104
0.010	19.519	-0.049	0.034	-0.154	0.101	1.029	0.759	0.492	1.213	1.944	1.944	-0.141	-0.019	0.103
0.010	19.519	-0.048	0.034	-0.150	0.090	1.010	0.788	0.510	1.214	1.936	1.938	-0.140	-0.023	0.101
0.010	19.519	-0.045	0.033	-0.142	0.079	0.995	0.795	0.531	1.260	1.935	1.939	-0.137	-0.023	0.100
0.010	19.540	-0.042	0.033	-0.139	0.069	0.984	0.805	0.518	1.278	1.939	1.940	-0.136	-0.025	0.097
0.011	19.531	-0.042	0.032	-0.131	0.062	0.974	0.792	0.522	1.311	1.934	1.936	-0.132	-0.030	0.094
0.011	19.528	-0.040	0.031	-0.124	0.055	0.973	0.785	0.521	1.309	1.931	1.938	-0.134	-0.034	0.093
0.011	19.559	-0.044	0.028	-0.117	0.047	0.951	0.772	0.534	1.281	1.933	1.939	-0.132	-0.033	0.090
0.011	19.534	-0.042	0.029	-0.112	0.043	0.945	0.781	0.536	1.210	1.928	1.935	-0.132	-0.034	0.087
0.011	19.550	-0.043	0.030	-0.106	0.040	0.940	0.799	0.538	1.154	1.921	1.936	-0.130	-0.039	0.086
0.012	19.534	-0.043	0.029	-0.103	0.038	0.917	0.791	0.540	1.129	1.932	1.941	-0.128	-0.040	0.086
0.012	19.528	-0.038	0.033	-0.100	0.037	0.909	0.807	0.524	1.137	1.933	1.936	-0.126	-0.044	0.084
0.012	19.537	-0.036	0.034	-0.097	0.040	0.889	0.783	0.538	1.152	1.931	1.931	-0.128	-0.045	0.089
0.012	19.547	-0.031	0.038	-0.095	0.041	0.889	0.767	0.522	1.171	1.934	1.936	-0.124	-0.048	0.085
0.012	19.571	-0.027	0.037	-0.093	0.045	0.894	0.749	0.557	1.181	1.931	1.935	-0.126	-0.050	0.086
0.013	19.540	-0.027	0.041	-0.094	0.051	0.917	0.720	0.581	1.192	1.934	1.934	-0.126	-0.051	0.088
0.013	19.537	-0.027	0.042	-0.095	0.056	0.914	0.722	0.628	1.172	1.930	1.934	-0.124	-0.053	0.090
0.013	19.562	-0.027	0.040	-0.097	0.064	0.906	0.706	0.658	1.183	1.935	1.939	-0.122	-0.055	0.093
0.013	19.537	-0.027	0.042	-0.098	0.071	0.862	0.719	0.650	1.186	1.931	1.937	-0.123	-0.056	0.095
0.013	19.537	-0.027	0.039	-0.098	0.080	0.840	0.711	0.683	1.180	1.931	1.936	-0.121	-0.058	0.098
0.014	19.528	-0.026	0.039	-0.097	0.088	0.820	0.692	0.681	1.171	1.917	1.933	-0.121	-0.057	0.100
0.014	19.519	-0.024	0.038	-0.096	0.099	0.795	0.660	0.687	1.155	1.916	1.930	-0.121	-0.058	0.103
0.014	19.525	-0.019	0.036	-0.093	0.108	0.797	0.646	0.653	1.169	1.928	1.929	-0.121	-0.059	0.103
0.014	19.537	-0.016	0.033	-0.090	0.118	0.800	0.634	0.653	1.172	1.936	1.926	-0.121	-0.060	0.106
0.014	19.528	-0.013	0.031	-0.086	0.128	0.793	0.626	0.646	1.165	1.931	1.936	-0.120	-0.060	0.107
0.015	19.534	-0.010	0.026	-0.080	0.137	0.781	0.591	0.632	1.175	1.924	1.924	-0.117	-0.060	0.106
0.015	19.528	-0.010	0.023	-0.074	0.148	0.743	0.590	0.644	1.155	1.928	1.927	-0.116	-0.060	0.106
0.015	19.537	-0.011	0.018	-0.066	0.157	0.703	0.579	0.630	1.163	1.921	1.923	-0.114	-0.061	0.104
0.015	19.513	-0.011	0.014	-0.059	0.168	0.670	0.568	0.662	1.160	1.919	1.919	-0.111	-0.062	0.102
0.015	19.534	-0.010	0.010	-0.049	0.179	0.654	0.565	0.684	1.185	1.927	1.925	-0.107	-0.063	0.099
0.016	19.519	-0.008	0.007	-0.040	0.190	0.652	0.567	0.657	1.221	1.919	1.936	-0.104	-0.064	0.095
0.016	19.543	-0.006	0.003	-0.029	0.202	0.663	0.579	0.665	1.271	1.923	1.930	-0.099	-0.066	0.091
0.016	19.537	-0.005	0.001	-0.018	0.211	0.689	0.584	0.671	1.301	1.923	1.929	-0.095	-0.068	0.087
0.016	19.553	-0.006	0.001	-0.006	0.222	0.674	0.587	0.715	1.302	1.921	1.932	-0.090	-0.066	0.081
0.016	19.534	-0.005	0.002	0.005	0.230	0.671	0.591	0.719	1.285	1.927	1.927	-0.085	-0.068	0.078
0.017	19.550	-0.008	0.005	0.018	0.238	0.653	0.596	0.744	1.273	1.914	1.924	-0.081	-0.069	0.073
0.017	19.534	-0.010	0.006	0.029	0.243	0.653	0.572	0.715	1.285	1.921	1.926	-0.077	-0.069	0.068
0.017	19.547	-0.013	0.011	0.040	0.246	0.663	0.574	0.687	1.297	1.925	1.930	-0.071	-0.070	0.063
0.017	19.543	-0.013	0.013	0.054	0.249	0.687	0.574	0.643	1.281	1.934	1.925	-0.068	-0.070	0.059
0.017	19.547	-0.013	0.016	0.063	0.250	0.698	0.574	0.599	1.256	1.921	1.920	-0.063	-0.071	0.055
0.018	19.537	-0.011	0.021	0.073	0.249	0.708	0.594	0.609	1.226	1.923	1.918	-0.059	-0.070	0.051
0.018	19.550	-0.011	0.024	0.081	0.248	0.724	0.614	0.592	1.200	1.924	1.924	-0.054	-0.069	0.049
0.018	19.547	-0.014	0.029	0.089	0.245	0.689	0.631	0.620	1.200	1.918	1.922	-0.053	-0.067	0.046
0.018	19.547	-0.015	0.033	0.097	0.241	0.684	0.638	0.592	1.195	1.923	1.923	-0.050	-0.065	0.046
0.018	19.547	-0.015	0.039	0.102	0.237	0.684	0.645	0.560	1.228	1.933	1.929	-0.049	-0.063	0.045
0.019	19.537	-0.019	0.042	0.107	0.234	0.674	0.634	0.528	1.280	1.929	1.924	-0.048	-0.062	0.043
0.019	19.547	-0.021	0.051	0.113	0.229	0.703	0.631	0.474	1.280	1.920	1.920	-0.047	-0.059	0.044
0.019	19.547	-0.022	0.055	0.115	0.227	0.711	0.604	0.464	1.298	1.927	1.923	-0.046	-0.056	0.044
0.019	19.516	-0.021	0.063	0.116	0.223	0.730	0.590	0.447	1.283	1.930	1.920	-0.046	-0.051	0.045
0.019	19.550	-0.023	0.070	0.115	0.219	0.723	0.571	0.508	1.277	1.924	1.918	-0.046	-0.046	0.043
0.020	19.553	-0.021	0.076	0.113	0.216	0.699	0.562	0.513	1.282	1.931	1.924	-0.047	-0.042	0.045
0.020	19.553	-0.024	0.083	0.110	0.212	0.675	0.559	0.545	1.281	1.926	1.922	-0.047	-0.037	0.043
0.020	19.540	-0.025	0.086	0.104	0.209	0.646	0.558	0.510	1.312	1.926	1.921	-0.050	-0.030	0.045
0.020	19.534	-0.028	0.093	0.097	0.203	0.662	0.572	0.460	1.305	1.928	1.923	-0.049	-0.025	0.046
0.020	19.528	-0.032	0.094	0.088	0.198	0.675	0.560	0.415	1.298	1.927	1.918	-0.053	-0.019	0.048
0.021	19.525	-0.035	0.099	0.080	0.192	0.701	0.568	0.375	1.263	1.921	1.918	-0.052	-0.012	0.049
0.021	19.562	-0.038	0.099	0.070	0.186	0.704	0.557	0.399	1.220	1.915	1.922	-0.053	-0.007	0.052
0.021	19.537	-0.037	0.100	0.058	0.177	0.718	0.541	0.435	1.175	1.920	1.921	-0.054	-0.001	0.054
0.021	19.556	-0.039	0.099	0.046	0.170	0.689	0.535	0.497	1.172	1.926	1.915	-0.056	0.005	0.056
0.021	19.540	-0.039	0.100	0.032	0.161	0.698	0.547	0.540	1.185	1.914	1.917	-0.055	0.009	0.058
0.022	19.553	-0.042	0.100	0.021	0.151	0.717	0.542	0.544	1.185	1.923	1.924	-0.057	0.015	0.063
0.022	19.540	-0.044	0.101	0.007	0.141	0.705	0.522	0.523	1.208	1.930	1.914	-0.055	0.019	0.066
0.022	19.543	-0.046	0.106	-0.004	0.131	0.710	0.557	0.498	1.215	1.916	1.914	-0.056	0.023	0.067
0.022	19.537	-0.046	0.105	-0.014	0.123	0.715	0.542	0.474	1.214	1.927	1.917	-0.054	0.027	0.072
0.022	19.550	-0.046	0.107	-0.023	0.112	0.704	0.558	0.517	1.207	1.920	1.913	-0.053	0.030	0.076
0.023	19.553	-0.044	0.110	-0.030	0.105	0.677	0.562	0.568	1.190	1.917	1.918	-0.052	0.033	0.081
0.023	19.562	-0.041	0.109	-0.036	0.096	0.655	0.572	0.628	1.203	1.918	1.920	-0.050	0.035	0.084
0.023	19.553	-0.040	0.113	-0.041	0.091	0.638	0.596	0.682	1.241	1.923	1.916	-0.050	0.038	0.089
0.023	19.540	-0.036	0.114	-0.043	0.083	0.637	0.619	0.657	1.238	1.914	1.913	-0.049	0.038	0.092
0.023	19.550	-0.036	0.115	-0.046	0.081	0.633	0.618	0.604	1.251	1.923	1.913	-0.047	0.040	0.096
0.024	19.534	-0.033	0.119	-0.049	0.075	0.627	0.629	0.550	1.252	1.918	1.916	-0.047	0.041	0.099
0.024	19.559	-0.035	0.122	-0.052	0.072	0.626	0.620	0.517	1.241	1.919	1.917	-0.047	0.040	0.102
0.024	19.543	-0.035	0.126	-0.056	0.070	0.618	0.610	0.509	1.240	1.920	1.907	-0.046	0.041	0.106
0.024	19.565	-0.035	0.130	-0.060	0.067	0.582	0.592	0.526	1.239	1.911	1.912	-0.042	0.041	0.107
0.024	19.534	-0.034	0.135	-0.065	0.066	0.563	0.596	0.556	1.234	1.913	1.908	-0.043	0.041	0.110
0.025	19.559	-0.033	0.138	-0.068	0.063	0.542	0.585	0.580	1.244	1.925	1.911	-0.043	0.041	0.109
0.025	19.556	-0.030	0.143	-0.074	0.062	0.521	0.602	0.573	1.248	1.921	1.909	-0.042	0.040	0.109
0.025	19.559	-0.028	0.142	-0.080	0.060	0.508	0.617	0.558	1.281	1.921	1.914	-0.044	0.042	0.109
0.025	19.565	-0.027	0.143	-0.085	0.057	0.505	0.614	0.517	1.302	1.916	1.909	-0.043	0.042	0.108
0.025	19.550	-0.025	0.142	-0.090	0.053	0.505	0.605	0.508	1.311	1.913	1.909	-0.042	0.042	0.108
0.026	19.565	-0.025	0.140	-0.097	0.052	0.507	0.578	0.496	1.325	1.911	1.907	-0.045	0.042	0.107
0.026	19.565	-0.026	0.139	-0.104	0.047	0.499	0.572	0.563	1.334	1.906	1.903	-0.046	0.044	0.105
0.026	19.550	-0.025	0.138	-0.112	0.044	0.507	0.570	0.572	1.290	1.906	1.908	-0.047	0.045	0.103
0.026	19.580	-0.024	0.139	-0.120	0.039	0.518	0.579	0.572	1.283	1.919	1.900	-0.048	0.049	0.102
0.026	19.562	-0.022	0.136	-0.129	0.034	0.505	0.599	0.528	1.302	1.910	1.907	-0.050	0.048	0.100
0.027	19.553	-0.019	0.135	-0.139	0.029	0.488	0.648	0.465	1.340	1.910	1.909	-0.050	0.049	0.098
0.027	19.571	-0.018	0.132	-0.149	0.023	0.489	0.681	0.444	1.377	1.909	1.908	-0.052	0.049	0.094
0.027	19.592	-0.014	0.131	-0.157	0.018	0.495	0.670	0.427	1.393	1.914	1.908	-0.051	0.051	0.095
0.027	19.580	-0.013	0.129	-0.168	0.010	0.508	0.689	0.433	1.392	1.907	1.904	-0.052	0.051	0.093
0.027	19.580	-0.013	0.126	-0.176	0.003	0.524	0.667	0.474	1.374	1.907	1.904	-0.049	0.052	0.091
0.028	19.580	-0.011	0.125	-0.182	-0.003	0.532	0.684	0.495	1.381	1.903	1.905	-0.052	0.053	0.089
0.028	19.577	-0.010	0.120	-0.191	-0.010	0.534	0.682	0.496	1.346	1.906	1.904	-0.049	0.053	0.085
0.028	19.577	-0.008	0.120	-0.196	-0.013	0.551	0.695	0.427	1.384	1.902	1.904	-0.052	0.050	0.085
0.028	19.580	-0.006	0.117	-0.201	-0.017	0.537	0.718	0.364	1.419	1.896	1.910	-0.047	0.049	0.082
0.028	19.589	0.001	0.116	-0.206	-0.018	0.563	0.726	0.323	1.457	1.902	1.901	-0.045	0.046	0.079
0.029	19.580	0.005	0.117	-0.207	-0.017	0.566	0.731	0.327	1.468	1.899	1.912	-0.042	0.044	0.076
0.029	19.583	0.010	0.117	-0.210	-0.013	0.578	0.707	0.365	1.438	1.913	1.907	-0.038	0.042	0.072
0.029	19.577	0.014	0.119	-0.210	-0.008	0.583	0.716	0.398	1.385	1.903	1.908	-0.033	0.037	0.068
0.029	19.614	0.016	0.115	-0.207	0.001	0.587	0.701	0.459	1.378	1.908	1.909	-0.031	0.035	0.064
0.029	19.598	0.017	0.117	-0.202	0.008	0.604	0.735	0.493	1.398	1.906	1.906	-0.029	0.030	0.058
0.030	19.598	0.017	0.115	-0.197	0.021	0.597	0.728	0.507	1.459	1.908	1.902	-0.023	0.026	0.056
0.030	19.586	0.021	0.118	-0.190	0.031	0.622	0.734	0.500	1.466	1.902	1.905	-0.021	0.021	0.051
0.030	19.620	0.022	0.119	-0.183	0.046	0.639	0.719	0.502	1.472	1.904	1.899	-0.014	0.015	0.046
0.030	19.589	0.028	0.122	-0.172	0.059	0.664	0.723	0.547	1.454	1.898	1.903	-0.014	0.010	0.039
0.030	19.608	0.032	0.122	-0.162	0.074	0.651	0.702	0.625	1.423	1.905	1.901	-0.008	0.006	0.035
0.031	19.583	0.036	0.123	-0.152	0.087	0.634	0.701	0.684	1.399	1.892	1.898	-0.007	0.002	0.030
0.031	19.604	0.036	0.126	-0.144	0.100	0.602	0.710	0.693	1.394	1.898	1.905	-0.002	-0.003	0.024
0.031	19.608	0.038	0.125	-0.133	0.114	0.587	0.702	0.664	1.407	1.899	1.902	0.005	-0.010	0.020
0.031	19.620	0.037	0.128	-0.122	0.125	0.597	0.713	0.635	1.439	1.900	1.900	0.004	-0.014	0.016
0.031	19.632	0.033	0.129	-0.113	0.135	0.586	0.702	0.584	1.443	1.906	1.907	0.009	-0.016	0.010
0.032	19.617	0.034	0.130	-0.103	0.142	0.598	0.701	0.557	1.447	1.906	1.907	0.010	-0.020	0.006
0.032	19.623	0.034	0.127	-0.095	0.147	0.614	0.666	0.578	1.395	1.908	1.902	0.013	-0.021	0.002
0.032	19.614	0.036	0.126	-0.090	0.151	0.595	0.652	0.590	1.345	1.902	1.899	0.014	-0.027	-0.004
0.032	19.601	0.038	0.126	-0.080	0.153	0.567	0.642	0.638	1.332	1.901	1.907	0.013	-0.028	-0.003
0.032	19.614	0.041	0.124	-0.076	0.153	0.544	0.618	0.631	1.316	1.910	1.898	0.015	-0.030	-0.007
0.033	19.608	0.041	0.124	-0.068	0.152	0.530	0.626	0.609	1.379	1.908	1.898	0.014	-0.032	-0.006
0.033	19.620	0.043	0.122	-0.064	0.150	0.531	0.606	0.577	1.421	1.909	1.894	0.013	-0.032	-0.013
0.033	19.611	0.037	0.123	-0.060	0.148	0.537	0.609	0.573	1.448	1.906	1.895	0.011	-0.033	-0.014
0.033	19.614	0.033	0.119	-0.056	0.146	0.543	0.606	0.558	1.421	1.896	1.895	0.010	-0.034	-0.017
0.033	19.611	0.028	0.121	-0.053	0.143	0.545	0.614	0.562	1.348	1.899	1.901	0.009	-0.034	-0.019
0.034	19.614	0.024	0.119	-0.050	0.140	0.528	0.621	0.602	1.295	1.894	1.897	0.006	-0.033	-0.020
0.034	19.611	0.020	0.121	-0.047	0.137	0.517	0.637	0.645	1.272	1.904	1.905	0.006	-0.034	-0.022
0.034	19.632	0.017	0.122	-0.045	0.134	0.519	0.640	0.663	1.272	1.892	1.906	0.002	-0.032	-0.024
0.034	19.638	0.017	0.125	-0.040	0.131	0.517	0.642	0.657	1.321	1.897	1.893	0.001	-0.032	-0.023
0.034	19.635	0.016	0.132	-0.036	0.128	0.529	0.660	0.618	1.374	1.898	1.894	-0.003	-0.030	-0.026
0.035	19.629	0.015	0.134	-0.032	0.128	0.520	0.660	0.585	1.401	1.898	1.892	-0.005	-0.028	-0.027
0.035	19.641	0.011	0.142	-0.030	0.126	0.526	0.648	0.561	1.408	1.894	1.891	-0.009	-0.027	-0.027
0.035	19.623	0.007	0.148	-0.027	0.125	0.510	0.622	0.540	1.360	1.895	1.891	-0.011	-0.025	-0.026
0.035	19.641	0.002	0.156	-0.026	0.126	0.490	0.651	0.529	1.346	1.896	1.900	-0.014	-0.022	-0.027
0.035	19.653	-0.004	0.161	-0.025	0.128	0.459	0.653	0.516	1.337	1.894	1.903	-0.015	-0.020	-0.027
0.036	19.641	-0.005	0.166	-0.028	0.131	0.452	0.657	0.512	1.365	1.891	1.894	-0.018	-0.017	-0.027
0.036	19.647	-0.009	0.170	-0.031	0.133	0.466	0.667	0.532	1.416	1.891	1.898	-0.019	-0.013	-0.026
0.036	19.656	-0.009	0.173	-0.035	0.136	0.493	0.632	0.513	1.445	1.892	1.893	-0.021	-0.010	-0.024
0.036	19.638	-0.010	0.177	-0.042	0.139	0.494	0.632	0.484	1.442	1.900	1.892	-0.024	-0.007	-0.023
0.036	19.656	-0.012	0.179	-0.049	0.142	0.498	0.593	0.444	1.441	1.899	1.895	-0.023	-0.004	-0.022
0.037	19.647	-0.016	0.183	-0.060	0.145	0.494	0.608	0.402	1.389	1.897	1.891	-0.027	0.001	-0.019
0.037	19.656	-0.019	0.183	-0.069	0.149	0.458	0.605	0.385	1.389	1.903	1.895	-0.027	0.005	-0.018
0.037	19.641	-0.024	0.183	-0.080	0.150	0.446	0.623	0.387	1.384	1.909	1.890	-0.031	0.009	-0.013
0.037	19.653	-0.029	0.182	-0.093	0.150	0.428	0.623	0.459	1.392	1.903	1.888	-0.032	0.013	-0.011
0.037	19.629	-0.032	0.179	-0.103	0.148	0.444	0.629	0.502	1.421	1.892	1.893	-0.036	0.016	-0.007
0.038	19.635	-0.036	0.176	-0.114	0.144	0.459	0.617	0.581	1.446	1.897	1.892	-0.036	0.021	-0.004
0.038	19.635	-0.036	0.172	-0.126	0.138	0.472	0.605	0.567	1.458	1.895	1.884	-0.039	0.024	-0.000
0.038	19.632	-0.038	0.167	-0.135	0.131	0.474	0.603	0.535	1.446	1.896	1.886	-0.041	0.026	0.003
0.038	19.620	-0.036	0.165	-0.143	0.121	0.471	0.584	0.485	1.428	1.902	1.892	-0.044	0.029	0.008
0.038	19.638	-0.039	0.161	-0.149	0.110	0.443	0.604	0.448	1.417	1.898	1.889	-0.045	0.033	0.011
0.039	19.617	-0.037	0.157	-0.154	0.096	0.448	0.613	0.440	1.380	1.897	1.894	-0.049	0.033	0.015
0.039	19.644	-0.039	0.152	-0.155	0.082	0.452	0.609	0.454	1.369	1.887	1.887	-0.049	0.036	0.017
0.039	19.641	-0.039	0.151	-0.154	0.066	0.481	0.643	0.470	1.362	1.891	1.888	-0.055	0.038	0.021
0.039	19.641	-0.039	0.146	-0.153	0.050	0.517	0.648	0.456	1.354	1.901	1.891	-0.056	0.037	0.025
0.039	19.617	-0.038	0.142	-0.150	0.034	0.528	0.645	0.403	1.347	1.908	1.891	-0.060	0.036	0.028
0.040	19.644	-0.035	0.142	-0.147	0.018	0.532	0.652	0.401	1.347	1.901	1.883	-0.064	0.036	0.032
0.040	19.626	-0.036	0.137	-0.144	0.004	0.534	0.626	0.398	1.329	1.891	1.884	-0.065	0.035	0.034
0.040	19.632	-0.035	0.135	-0.139	-0.010	0.499	0.642	0.437	1.287	1.896	1.889	-0.069	0.035	0.037
0.040	19.626	-0.034	0.134	-0.134	-0.021	0.507	0.647	0.481	1.265	1.895	1.894	-0.069	0.033	0.038
0.040	19.620	-0.034	0.132	-0.131	-0.031	0.521	0.658	0.543	1.285	1.895	1.891	-0.071	0.032	0.042
0.041	19.635	-0.034	0.131	-0.128	-0.037	0.543	0.648	0.578	1.324	1.898	1.887	-0.070	0.030	0.045
0.041	19.641	-0.033	0.129	-0.126	-0.041	0.562	0.650	0.561	1.407	1.884	1.888	-0.074	0.028	0.048
0.041	19.626	-0.033	0.129	-0.126	-0.041	0.577	0.639	0.510	1.472	1.890	1.888	-0.074	0.028	0.052
0.041	19.644	-0.030	0.131	-0.126	-0.040	0.590	0.639	0.457	1.484	1.901	1.886	-0.076	0.024	0.055
0.041	19.623	-0.026	0.129	-0.129	-0.034	0.594	0.625	0.416	1.451	1.899	1.879	-0.076	0.022	0.059
0.042	19.632	-0.025	0.132	-0.132	-0.026	0.556	0.623	0.415	1.410	1.891	1.887	-0.077	0.020	0.062
0.042	19.641	-0.019	0.131	-0.137	-0.017	0.589	0.616	0.421	1.341	1.898	1.885	-0.076	0.014	0.065
0.042	19.641	-0.021	0.128	-0.144	-0.007	0.590	0.579	0.456	1.313	1.891	1.887	-0.074	0.015	0.068
0.042	19.632	-0.020	0.129	-0.151	0.005	0.598	0.589	0.463	1.324	1.891	1.888	-0.075	0.011	0.070
0.042	19.638	-0.020	0.124	-0.159	0.015	0.596	0.563	0.488	1.360	1.891	1.885	-0.073	0.010	0.073
0.043	19.659	-0.019	0.124	-0.167	0.026	0.626	0.589	0.493	1.385	1.896	1.885	-0.072	0.007	0.074
0.043	19.650	-0.018	0.117	-0.175	0.039	0.640	0.559	0.520	1.401	1.893	1.885	-0.069	0.004	0.077
0.043	19.669	-0.017	0.114	-0.183	0.047	0.659	0.573	0.563	1.372	1.893	1.882	-0.070	0.001	0.079
0.043	19.669	-0.015	0.109	-0.191	0.057	0.672	0.543	0.593	1.351	1.889	1.886	-0.065	-0.003	0.081
0.043	19.678	-0.011	0.106	-0.196	0.068	0.698	0.532	0.610	1.345	1.889	1.886	-0.065	-0.006	0.084
0.044	19.672	-0.011	0.102	-0.202	0.077	0.689	0.511	0.610	1.366	1.898	1.889	-0.063	-0.010	0.084
0.044	19.659	-0.007	0.098	-0.202	0.088	0.699	0.499	0.615	1.402	1.881	1.884	-0.063	-0.014	0.084
0.044	19.653	-0.009	0.096	-0.205	0.098	0.677	0.509	0.596	1.445	1.887	1.886	-0.058	-0.018	0.084
0.044	19.647	-0.008	0.091	-0.204	0.107	0.687	0.469	0.585	1.479	1.886	1.881	-0.057	-0.024	0.083
0.044	19.653	-0.009	0.089	-0.203	0.116	0.688	0.453	0.607	1.482	1.880	1.881	-0.055	-0.030	0.083
0.045	19.662	-0.009	0.086	-0.199	0.125	0.672	0.443	0.595	1.468	1.886	1.886	-0.052	-0.036	0.080
0.045	19.653	-0.007	0.084	-0.192	0.131	0.703	0.429	0.620	1.426	1.888	1.875	-0.051	-0.041	0.082
0.045	19.653	-0.006	0.080	-0.184	0.139	0.710	0.413	0.642	1.389	1.891	1.877	-0.045	-0.047	0.075
0.045	19.653	-0.001	0.076	-0.174	0.146	0.731	0.423	0.639	1.398	1.888	1.880	-0.043	-0.054	0.072
0.045	19.653	0.000	0.074	-0.162	0.151	0.729	0.421	0.670	1.421	1.888	1.878	-0.039	-0.058	0.066
0.046	19.669	0.003	0.072	-0.149	0.156	0.723	0.407	0.670	1.451	1.887	1.878	-0.035	-0.064	0.062
0.046	19.650	0.003	0.071	-0.135	0.158	0.720	0.407	0.651	1.457	1.886	1.878	-0.033	-0.072	0.056
0.046	19.647	0.003	0.069	-0.119	0.161	0.710	0.379	0.635	1.472	1.888	1.874	-0.031	-0.076	0.049
0.046	19.653	-0.001	0.070	-0.104	0.161	0.718	0.396	0.605	1.442	1.892	1.875	-0.028	-0.083	0.043
0.046	19.662	-0.003	0.068	-0.088	0.160	0.735	0.377	0.594	1.404	1.891	1.876	-0.026	-0.086	0.035
0.047	19.647	-0.009	0.069	-0.074	0.160	0.736	0.385	0.560	1.362	1.889	1.877	-0.022	-0.093	0.027
0.047	19.638	-0.013	0.070	-0.058	0.157	0.747	0.400	0.546	1.359	1.885	1.878	-0.021	-0.095	0.020
0.047	19.638	-0.016	0.073	-0.045	0.154	0.756	0.402	0.533	1.347	1.892	1.878	-0.019	-0.098	0.014
0.047	19.638	-0.019	0.075	-0.030	0.151	0.738	0.419	0.500	1.380	1.892	1.880	-0.016	-0.101	0.003
0.047	19.623	-0.016	0.077	-0.017	0.147	0.749	0.389	0.521	1.382	1.881	1.880	-0.016	-0.103	-0.003
0.048	19.653	-0.019	0.080	-0.009	0.143	0.739	0.389	0.535	1.382	1.887	1.880	-0.011	-0.105	-0.010
0.048	19.641	-0.017	0.082	-0.003	0.139	0.756	0.390	0.561	1.357	1.888	1.882	-0.015	-0.106	-0.015
0.048	19.672	-0.018	0.082	0.003	0.135	0.742	0.388	0.586	1.329	1.879	1.881	-0.012	-0.105	-0.022
0.048	19.662	-0.021	0.083	0.005	0.132	0.739	0.401	0.569	1.320	1.884	1.873	-0.014	-0.105	-0.025
0.048	19.666	-0.025	0.084	0.005	0.128	0.711	0.415	0.546	1.323	1.878	1.883	-0.016	-0.103	-0.028
0.049	19.656	-0.031	0.086	0.003	0.126	0.696	0.439	0.483	1.355	1.872	1.873	-0.015	-0.100	-0.027
0.049	19.684	-0.034	0.087	0.001	0.124	0.699	0.446	0.433	1.385	1.869	1.872	-0.017	-0.098	-0.031
0.049	19.675	-0.038	0.090	-0.004	0.123	0.699	0.456	0.433	1.406	1.879	1.872	-0.018	-0.094	-0.031
0.049	19.693	-0.039	0.092	-0.013	0.123	0.704	0.437	0.464	1.354	1.886	1.872	-0.019	-0.091	-0.030
0.049	19.684	-0.039	0.094	-0.021	0.122	0.707	0.447	0.500	1.304	1.877	1.875	-0.020	-0.083	-0.027
0.050	19.693	-0.040	0.095	-0.030	0.121	0.689	0.428	0.530	1.250	1.876	1.871	-0.022	-0.077	-0.025
0.050	19.699	-0.041	0.101	-0.040	0.118	0.681	0.444	0.513	1.247	1.870	1.872	-0.026	-0.069	-0.021
0.050	19.711	-0.044	0.100	-0.051	0.116	0.657	0.424	0.488	1.278	1.875	1.869	-0.027	-0.062	-0.014
0.050	19.714	-0.048	0.105	-0.060	0.114	0.646	0.449	0.434	1.326	1.875	1.869	-0.032	-0.055	-0.007
0.050	19.727	-0.053	0.106	-0.070	0.111	0.634	0.452	0.424	1.382	1.879	1.874	-0.035	-0.045	0.002
0.051	19.748	-0.054	0.109	-0.079	0.108	0.658	0.466	0.461	1.399	1.876	1.877	-0.040	-0.037	0.007
0.051	19.730	-0.054	0.112	-0.088	0.105	0.664	0.464	0.550	1.353	1.873	1.878	-0.043	-0.029	0.014
0.051	19.733	-0.050	0.114	-0.097	0.101	0.682	0.433	0.617	1.311	1.869	1.878	-0.050	-0.018	0.023
0.051	19.748	-0.049	0.116	-0.105	0.097	0.675	0.433	0.641	1.269	1.875	1.875	-0.049	-0.008	0.029
0.051	19.748	-0.041	0.113	-0.112	0.092	0.687	0.404	0.603	1.248	1.873	1.880	-0.052	-0.002	0.038
0.052	19.754	-0.039	0.117	-0.116	0.090	0.677	0.413	0.556	1.262	1.885	1.873	-0.057	0.009	0.045
0.052	19.785	-0.040	0.118	-0.123	0.082	0.632	0.426	0.497	1.296	1.882	1.873	-0.060	0.019	0.052
0.052	19.769	-0.039	0.118	-0.128	0.076	0.645	0.432	0.474	1.320	1.873	1.868	-0.063	0.027	0.059
0.052	19.788	-0.044	0.115	-0.133	0.073	0.632	0.428	0.478	1.351	1.869	1.873	-0.065	0.039	0.065
0.052	19.788	-0.043	0.116	-0.137	0.064	0.656	0.431	0.520	1.355	1.876	1.873	-0.068	0.044	0.069
0.053	19.818	-0.046	0.113	-0.142	0.059	0.667	0.444	0.545	1.349	1.876	1.882	-0.069	0.051	0.077
0.053	19.803	-0.040	0.112	-0.146	0.051	0.681	0.443	0.585	1.338	1.879	1.867	-0.071	0.057	0.082
0.053	19.812	-0.035	0.110	-0.150	0.042	0.708	0.473	0.610	1.335	1.878	1.871	-0.073	0.064	0.086
0.053	19.821	-0.030	0.110	-0.153	0.037	0.703	0.497	0.606	1.320	1.881	1.873	-0.075	0.069	0.091
0.053	19.809	-0.023	0.109	-0.156	0.029	0.710	0.507	0.604	1.328	1.877	1.872	-0.076	0.072	0.092
0.054	19.806	-0.020	0.110	-0.159	0.023	0.718	0.522	0.581	1.366	1.886	1.872	-0.077	0.076	0.094
0.054	19.821	-0.018	0.111	-0.161	0.018	0.702	0.505	0.563	1.378	1.873	1.877	-0.076	0.078	0.094
0.054	19.821	-0.019	0.110	-0.162	0.012	0.718	0.501	0.537	1.378	1.890	1.876	-0.078	0.081	0.096
0.054	19.827	-0.018	0.111	-0.168	0.009	0.725	0.475	0.534	1.377	1.885	1.872	-0.077	0.081	0.095
0.054	19.815	-0.019	0.109	-0.171	0.006	0.762	0.461	0.517	1.350	1.881	1.872	-0.077	0.082	0.095
0.055	19.827	-0.015	0.108	-0.176	0.005	0.778	0.432	0.499	1.329	1.876	1.871	-0.077	0.081	0.093
0.055	19.818	-0.012	0.108	-0.179	0.006	0.777	0.440	0.506	1.306	1.878	1.870	-0.077	0.080	0.092
0.055	19.833	-0.005	0.105	-0.184	0.007	0.823	0.431	0.498	1.283	1.873	1.876	-0.076	0.078	0.090
0.055	19.824	0.001	0.103	-0.191	0.013	0.834	0.435	0.518	1.276	1.873	1.878	-0.074	0.076	0.089
0.055	19.812	0.004	0.100	-0.196	0.016	0.853	0.459	0.535	1.282	1.875	1.873	-0.074	0.072	0.086
0.056	19.830	0.005	0.098	-0.205	0.020	0.877	0.461	0.566	1.310	1.871	1.872	-0.073	0.069	0.083
0.056	19.830	0.004	0.096	-0.213	0.028	0.887	0.458	0.567	1.332	1.879	1.873	-0.072	0.064	0.081
0.056	19.846	0.002	0.095	-0.220	0.033	0.901	0.443	0.589	1.345	1.877	1.870	-0.071	0.060	0.077
0.056	19.809	0.004	0.095	-0.229	0.039	0.910	0.416	0.570	1.345	1.879	1.871	-0.071	0.055	0.075
0.056	19.818	0.006	0.097	-0.235	0.043	0.930	0.401	0.580	1.345	1.885	1.871	-0.066	0.049	0.072
0.057	19.830	0.013	0.097	-0.244	0.047	0.961	0.386	0.570	1.349	1.883	1.864	-0.065	0.043	0.068
0.057	19.824	0.018	0.098	-0.249	0.050	1.001	0.396	0.565	1.356	1.888	1.869	-0.060	0.037	0.066
0.057	19.839	0.027	0.099	-0.256	0.050	1.026	0.377	0.549	1.367	1.881	1.876	-0.059	0.031	0.063
0.057	19.839	0.030	0.101	-0.260	0.048	1.041	0.402	0.531	1.407	1.880	1.865	-0.056	0.024	0.061
0.057	19.830	0.035	0.101	-0.264	0.044	1.067	0.362	0.529	1.428	1.890	1.868	-0.054	0.018	0.060
0.058	19.827	0.032	0.103	-0.264	0.040	1.074	0.338	0.534	1.439	1.881	1.871	-0.050	0.011	0.057
0.058	19.839	0.030	0.104	-0.264	0.033	1.075	0.314	0.533	1.431	1.883	1.864	-0.047	0.004	0.055
0.058	19.839	0.028	0.106	-0.263	0.025	1.082	0.307	0.571	1.403	1.882	1.874	-0.044	-0.001	0.052
0.058	19.839	0.026	0.106	-0.261	0.017	1.093	0.272	0.611	1.379	1.885	1.868	-0.039	-0.008	0.049
0.058	19.833	0.028	0.108	-0.256	0.009	1.137	0.246	0.684	1.384	1.884	1.868	-0.036	-0.015	0.047
0.059	19.827	0.030	0.108	-0.251	0.001	1.132	0.241	0.665	1.394	1.884	1.871	-0.031	-0.021	0.043
0.059	19.830	0.037	0.106	-0.242	-0.006	1.149	0.194	0.637	1.435	1.888	1.865	-0.028	-0.027	0.042
0.059	19.839	0.041	0.106	-0.233	-0.012	1.149	0.184	0.599	1.471	1.885	1.868	-0.023	-0.032	0.040
0.059	19.824	0.043	0.102	-0.222	-0.015	1.134	0.132	0.561	1.442	1.898	1.870	-0.020	-0.036	0.037
0.059	19.839	0.044	0.101	-0.211	-0.016	1.126	0.141	0.540	1.417	1.885	1.877	-0.017	-0.040	0.035
0.060	19.836	0.040	0.096	-0.199	-0.013	1.106	0.125	0.533	1.375	1.886	1.877	-0.010	-0.047	0.032
0.060	19.836	0.039	0.092	-0.186	-0.008	1.115	0.128	0.523	1.363	1.893	1.875	-0.007	-0.051	0.030
0.060	19.821	0.035	0.089	-0.172	0.001	1.098	0.136	0.513	1.373	1.883	1.875	-0.002	-0.056	0.027
0.060	19.843	0.035	0.086	-0.158	0.012	1.103	0.124	0.477	1.395	1.882	1.876	0.001	-0.058	0.023
0.060	19.812	0.034	0.084	-0.142	0.024	1.070	0.146	0.460	1.395	1.884	1.877	0.005	-0.061	0.021
0.061	19.830	0.039	0.079	-0.124	0.038	1.051	0.112	0.470	1.373	1.875	1.868	0.009	-0.064	0.018
0.061	19.815	0.038	0.078	-0.110	0.052	1.023	0.124	0.478	1.361	1.879	1.871	0.012	-0.067	0.016
0.061	19.830	0.039	0.076	-0.095	0.069	1.009	0.092	0.477	1.366	1.883	1.871	0.015	-0.068	0.013
0.061	19.818	0.035	0.074	-0.079	0.084	1.013	0.105	0.482	1.369	1.880	1.867	0.016	-0.069	0.012
0.061	19.846	0.028	0.074	-0.067	0.100	1.001	0.098	0.471	1.369	1.883	1.869	0.019	-0.069	0.008
0.062	19.836	0.027	0.072	-0.053	0.115	1.014	0.109	0.452	1.354	1.893	1.869	0.019	-0.072	0.009
0.062	19.833	0.017	0.071	-0.040	0.129	0.973	0.114	0.453	1.336	1.885	1.877	0.021	-0.069	0.006
0.062	19.827	0.019	0.073	-0.031	0.140	0.955	0.111	0.463	1.336	1.886	1.874	0.022	-0.071	0.005
0.062	19.846	0.018	0.071	-0.020	0.149	0.934	0.109	0.489	1.361	1.887	1.866	0.022	-0.071	0.005
0.062	19.833	0.019	0.072	-0.016	0.155	0.905	0.092	0.504	1.397	1.885	1.868	0.021	-0.070	0.003
0.063	19.846	0.018	0.074	-0.009	0.157	0.900	0.111	0.507	1.440	1.881	1.864	0.020	-0.070	0.003
0.063	19.839	0.018	0.077	-0.006	0.156	0.878	0.106	0.519	1.487	1.883	1.867	0.019	-0.067	0.001
0.063	19.846	0.016	0.080	-0.005	0.154	0.850	0.120	0.548	1.508	1.877	1.874	0.018	-0.064	-0.001
0.063	19.833	0.012	0.084	-0.002	0.148	0.836	0.129	0.562	1.522	1.877	1.866	0.016	-0.061	-0.001
0.063	19.849	0.008	0.087	-0.007	0.142	0.801	0.116	0.558	1.539	1.883	1.873	0.013	-0.058	-0.003
0.064	19.846	0.001	0.091	-0.008	0.132	0.762	0.124	0.548	1.554	1.877	1.869	0.011	-0.055	-0.003
0.064	19.839	-0.002	0.097	-0.012	0.122	0.748	0.101	0.522	1.554	1.873	1.863	0.010	-0.051	-0.002
0.064	19.852	-0.006	0.102	-0.017	0.111	0.718	0.078	0.516	1.552	1.881	1.865	0.005	-0.047	-0.002
0.064	19.843	-0.009	0.106	-0.024	0.100	0.719	0.075	0.504	1.579	1.881	1.864	0.002	-0.043	-0.004
0.064	19.858	-0.010	0.113	-0.032	0.089	0.710	0.059	0.481	1.573	1.877	1.863	-0.002	-0.038	-0.005
0.065	19.849	-0.013	0.115	-0.039	0.077	0.728	0.070	0.463	1.573	1.879	1.865	-0.005	-0.032	-0.005
0.065	19.852	-0.015	0.121	-0.047	0.067	0.727	0.041	0.438	1.564	1.875	1.857	-0.008	-0.028	-0.006
0.065	19.843	-0.019	0.126	-0.057	0.057	0.728	0.044	0.413	1.530	1.878	1.860	-0.011	-0.022	-0.006
0.065	19.843	-0.020	0.130	-0.063	0.050	0.741	0.001	0.416	1.532	1.883	1.864	-0.015	-0.016	-0.004
0.065	19.846	-0.025	0.133	-0.071	0.046	0.739	0.011	0.433	1.516	1.880	1.865	-0.018	-0.010	-0.008
0.066	19.839	-0.026	0.137	-0.076	0.042	0.763	-0.016	0.478	1.540	1.881	1.869	-0.021	-0.005	-0.008
0.066	19.843	-0.029	0.140	-0.083	0.043	0.775	-0.008	0.499	1.562	1.876	1.863	-0.024	0.002	-0.008
0.066	19.852	-0.028	0.142	-0.090	0.043	0.801	-0.032	0.509	1.560	1.879	1.872	-0.026	0.007	-0.008
0.066	19.843	-0.028	0.144	-0.094	0.048	0.831	-0.028	0.502	1.576	1.885	1.865	-0.030	0.012	-0.007
0.066	19.849	-0.029	0.145	-0.098	0.052	0.852	-0.029	0.460	1.538	1.874	1.871	-0.027	0.018	-0.006
0.067	19.836	-0.028	0.146	-0.100	0.057	0.874	-0.021	0.415	1.517	1.876	1.864	-0.032	0.023	-0.005
0.067	19.827	-0.029	0.147	-0.100	0.063	0.869	0.005	0.380	1.492	1.880	1.866	-0.033	0.030	-0.004
0.067	19.800	-0.027	0.146	-0.100	0.069	0.868	-0.010	0.364	1.462	1.875	1.858	-0.035	0.030	-0.001
0.067	19.827	-0.030	0.145	-0.098	0.073	0.860	-0.007	0.387	1.402	1.873	1.866	-0.036	0.036	0.004
0.067	19.836	-0.028	0.145	-0.096	0.077	0.858	-0.032	0.389	1.384	1.879	1.868	-0.037	0.040	0.003
0.068	19.821	-0.030	0.141	-0.095	0.080	0.861	-0.050	0.381	1.370	1.879	1.866	-0.038	0.044	0.007
0.068	19.827	-0.030	0.142	-0.093	0.081	0.885	-0.061	0.362	1.369	1.882	1.863	-0.039	0.046	0.010
0.068	19.800	-0.033	0.142	-0.092	0.083	0.908	-0.050	0.311	1.372	1.869	1.863	-0.040	0.049	0.017
0.068	19.833	-0.032	0.140	-0.093	0.084	0.925	-0.039	0.254	1.369	1.877	1.865	-0.041	0.050	0.024
0.068	19.809	-0.030	0.139	-0.092	0.083	0.947	-0.010	0.242	1.342	1.873	1.864	-0.041	0.052	0.029
0.069	19.806	-0.029	0.137	-0.094	0.083	0.956	0.001	0.263	1.301	1.873	1.857	-0.043	0.050	0.035
0.069	19.806	-0.027	0.135	-0.098	0.081	0.974	0.009	0.320	1.278	1.887	1.865	-0.044	0.051	0.044
0.069	19.821	-0.026	0.131	-0.104	0.079	0.984	0.007	0.347	1.265	1.878	1.869	-0.045	0.049	0.051
0.069	19.797	-0.022	0.128	-0.109	0.076	0.999	-0.014	0.361	1.305	1.874	1.863	-0.047	0.049	0.061
0.069	19.824	-0.022	0.123	-0.117	0.072	1.023	-0.016	0.338	1.335	1.865	1.858	-0.048	0.047	0.069
0.070	19.794	-0.023	0.120	-0.126	0.068	1.033	-0.010	0.305	1.370	1.879	1.861	-0.050	0.043	0.078
0.070	19.806	-0.024	0.114	-0.135	0.062	1.050	-0.008	0.300	1.382	1.876	1.866	-0.052	0.044	0.087
0.070	19.809	-0.026	0.112	-0.147	0.055	1.034	0.011	0.296	1.392	1.878	1.860	-0.055	0.043	0.097
0.070	19.800	-0.024	0.109	-0.158	0.049	1.023	0.011	0.328	1.379	1.872	1.862	-0.057	0.043	0.105
0.070	19.797	-0.023	0.109	-0.170	0.044	1.014	0.011	0.339	1.403	1.875	1.860	-0.060	0.038	0.116
0.071	19.797	-0.021	0.109	-0.182	0.038	0.994	0.005	0.366	1.447	1.869	1.862	-0.062	0.038	0.126
0.071	19.794	-0.018	0.110	-0.195	0.033	0.989	0.008	0.355	1.479	1.877	1.856	-0.065	0.036	0.138
0.071	19.797	-0.015	0.109	-0.203	0.029	1.006	0.026	0.348	1.494	1.880	1.863	-0.066	0.033	0.142
0.071	19.791	-0.011	0.109	-0.212	0.026	0.999	0.025	0.340	1.488	1.872	1.864	-0.070	0.030	0.150
0.071	19.815	-0.010	0.107	-0.220	0.024	0.989	0.029	0.338	1.457	1.872	1.862	-0.074	0.030	0.155
0.072	19.794	-0.007	0.108	-0.228	0.022	0.965	0.014	0.339	1.450	1.880	1.861	-0.073	0.028	0.160
0.072	19.791	-0.004	0.106	-0.232	0.024	0.946	-0.005	0.332	1.454	1.880	1.861	-0.075	0.024	0.164
0.072	19.794	-0.006	0.104	-0.235	0.027	0.911	-0.034	0.312	1.504	1.885	1.857	-0.074	0.024	0.166
0.072	19.775	-0.003	0.103	-0.236	0.032	0.901	-0.037	0.307	1.544	1.874	1.862	-0.078	0.017	0.166
0.072	19.788	-0.003	0.097	-0.232	0.039	0.892	-0.037	0.330	1.578	1.873	1.861	-0.078	0.019	0.166
0.073	19.781	0.002	0.097	-0.230	0.051	0.887	-0.043	0.332	1.573	1.878	1.857	-0.077	0.015	0.162
0.073	19.788	0.006	0.092	-0.224	0.064	0.868	-0.019	0.318	1.563	1.877	1.858	-0.076	0.015	0.158
0.073	19.785	0.012	0.090	-0.218	0.081	0.877	-0.022	0.275	1.537	1.878	1.861	-0.075	0.009	0.154
0.073	19.794	0.015	0.088	-0.207	0.101	0.840	-0.020	0.233	1.534	1.879	1.860	-0.072	0.005	0.148
0.073	19.803	0.021	0.084	-0.199	0.120	0.836	-0.038	0.199	1.526	1.872	1.864	-0.070	0.002	0.139
0.074	19.778	0.019	0.081	-0.186	0.143	0.812	-0.040	0.209	1.526	1.868	1.861	-0.067	-0.002	0.131
0.074	19.785	0.021	0.075	-0.173	0.164	0.789	-0.061	0.232	1.542	1.873	1.850	-0.065	-0.007	0.120
0.074	19.781	0.018	0.072	-0.160	0.186	0.784	-0.043	0.295	1.549	1.874	1.854	-0.061	-0.012	0.110
0.074	19.788	0.020	0.068	-0.147	0.207	0.776	-0.068	0.310	1.561	1.877	1.854	-0.057	-0.017	0.097
0.074	19.772	0.020	0.064	-0.131	0.226	0.769	-0.045	0.291	1.572	1.879	1.856	-0.052	-0.022	0.084
0.075	19.785	0.026	0.062	-0.117	0.243	0.759	-0.065	0.270	1.581	1.869	1.859	-0.047	-0.029	0.071
0.075	19.797	0.029	0.059	-0.102	0.259	0.785	-0.081	0.258	1.593	1.880	1.856	-0.043	-0.033	0.059
0.075	19.781	0.030	0.059	-0.088	0.271	0.761	-0.076	0.260	1.597	1.879	1.856	-0.039	-0.037	0.045
0.075	19.772	0.034	0.059	-0.075	0.281	0.768	-0.097	0.292	1.579	1.883	1.860	-0.035	-0.041	0.034
0.075	19.824	0.031	0.060	-0.062	0.286	0.756	-0.085	0.323	1.545	1.882	1.859	-0.031	-0.047	0.022
0.076	19.791	0.031	0.060	-0.050	0.288	0.778	-0.063	0.339	1.528	1.878	1.857	-0.028	-0.051	0.012
0.076	19.803	0.026	0.064	-0.040	0.287	0.766	-0.050	0.335	1.518	1.873	1.861	-0.025	-0.055	0.002
0.076	19.794	0.025	0.064	-0.032	0.280	0.747	-0.059	0.307	1.517	1.877	1.856	-0.023	-0.058	-0.007
0.076	19.794	0.025	0.065	-0.024	0.272	0.759	-0.049	0.262	1.496	1.875	1.860	-0.020	-0.062	-0.015
0.076	19.821	0.023	0.067	-0.018	0.262	0.741	-0.059	0.235	1.488	1.876	1.859	-0.019	-0.064	-0.022
0.077	19.818	0.026	0.070	-0.015	0.250	0.773	-0.063	0.229	1.504	1.874	1.859	-0.017	-0.066	-0.026
0.077	19.809	0.026	0.073	-0.013	0.237	0.759	-0.039	0.262	1.499	1.876	1.854	-0.019	-0.066	-0.030
0.077	19.815	0.027	0.076	-0.012	0.225	0.791	-0.040	0.318	1.503	1.881	1.856	-0.020	-0.067	-0.032
0.077	19.809	0.025	0.081	-0.012	0.213	0.772	-0.021	0.383	1.516	1.882	1.860	-0.020	-0.064	-0.033
0.077	19.812	0.023	0.084	-0.014	0.201	0.767	-0.026	0.397	1.516	1.873	1.858	-0.023	-0.062	-0.035
0.078	19.827	0.020	0.090	-0.015	0.190	0.777	-0.029	0.402	1.530	1.873	1.854	-0.026	-0.061	-0.032
0.078	19.830	0.017	0.092	-0.016	0.181	0.766	-0.049	0.378	1.540	1.877	1.861	-0.030	-0.057	-0.028
0.078	19.815	0.017	0.100	-0.019	0.171	0.787	-0.059	0.329	1.534	1.877	1.858	-0.034	-0.054	-0.025
0.078	19.809	0.015	0.105	-0.021	0.164	0.775	-0.052	0.320	1.543	1.872	1.855	-0.037	-0.050	-0.021
0.078	19.800	0.016	0.108	-0.024	0.156	0.805	-0.056	0.334	1.550	1.881	1.858	-0.042	-0.043	-0.015
0.079	19.812	0.016	0.112	-0.025	0.148	0.836	-0.050	0.366	1.527	1.882	1.855	-0.046	-0.037	-0.010
0.079	19.809	0.018	0.114	-0.029	0.142	0.873	-0.064	0.410	1.517	1.884	1.852	-0.052	-0.030	-0.002
0.079	19.815	0.016	0.118	-0.030	0.135	0.849	-0.058	0.422	1.478	1.878	1.858	-0.057	-0.021	0.004
0.079	19.843	0.017	0.120	-0.033	0.129	0.865	-0.052	0.367	1.442	1.875	1.860	-0.062	-0.014	0.013
0.079	19.824	0.012	0.120	-0.037	0.123	0.814	-0.045	0.290	1.409	1.887	1.858	-0.066	-0.005	0.020
0.080	19.858	0.011	0.121	-0.041	0.117	0.816	-0.025	0.178	1.390	1.881	1.863	-0.072	0.002	0.028
0.080	19.827	0.010	0.118	-0.046	0.114	0.852	0.003	0.146	1.356	1.885	1.859	-0.077	0.010	0.037
0.080	19.827	0.008	0.114	-0.054	0.110	0.843	0.009	0.153	1.349	1.882	1.858	-0.082	0.017	0.045
0.080	19.818	0.009	0.111	-0.060	0.107	0.880	0.022	0.218	1.333	1.887	1.862	-0.086	0.024	0.053
0.080	19.812	0.009	0.106	-0.069	0.105	0.884	0.008	0.277	1.320	1.885	1.861	-0.090	0.031	0.062
0.081	19.821	0.009	0.105	-0.079	0.105	0.888	0.024	0.294	1.309	1.880	1.853	-0.093	0.037	0.068
0.081	19.821	0.010	0.101	-0.090	0.105	0.901	0.056	0.251	1.290	1.879	1.853	-0.097	0.044	0.075
0.081	19.818	0.011	0.097	-0.101	0.106	0.909	0.095	0.162	1.317	1.877	1.861	-0.099	0.049	0.080
0.081	19.836	0.014	0.094	-0.114	0.107	0.926	0.143	0.081	1.350	1.884	1.855	-0.101	0.052	0.085
0.081	19.809	0.016	0.092	-0.130	0.110	0.925	0.178	0.056	1.383	1.883	1.853	-0.105	0.056	0.088
0.082	19.827	0.019	0.090	-0.146	0.114	0.909	0.194	0.075	1.398	1.885	1.847	-0.106	0.059	0.089
0.082	19.833	0.022	0.088	-0.161	0.115	0.902	0.202	0.136	1.372	1.882	1.852	-0.107	0.059	0.090
0.082	19.800	0.029	0.086	-0.176	0.117	0.914	0.196	0.198	1.337	1.881	1.854	-0.110	0.061	0.091
0.082	19.821	0.026	0.085	-0.194	0.119	0.885	0.210	0.216	1.276	1.879	1.856	-0.110	0.063	0.088
0.082	19.812	0.033	0.084	-0.211	0.119	0.887	0.231	0.192	1.256	1.874	1.853	-0.111	0.061	0.086
0.083	19.827	0.034	0.084	-0.224	0.116	0.894	0.256	0.137	1.307	1.872	1.846	-0.111	0.060	0.082
0.083	19.815	0.037	0.086	-0.242	0.111	0.897	0.277	0.075	1.337	1.877	1.853	-0.112	0.057	0.078
0.083	19.800	0.035	0.087	-0.257	0.103	0.913	0.292	0.062	1.369	1.881	1.854	-0.113	0.055	0.072
0.083	19.806	0.034	0.089	-0.269	0.091	0.928	0.279	0.117	1.372	1.874	1.849	-0.113	0.051	0.067
0.083	19.827	0.034	0.091	-0.281	0.077	0.921	0.281	0.187	1.369	1.879	1.858	-0.114	0.050	0.059
0.084	19.803	0.035	0.093	-0.293	0.062	0.896	0.296	0.271	1.350	1.872	1.854	-0.114	0.047	0.053
0.084	19.821	0.038	0.095	-0.304	0.046	0.870	0.316	0.306	1.355	1.876	1.865	-0.114	0.043	0.046
0.084	19.827	0.040	0.093	-0.312	0.028	0.845	0.328	0.275	1.354	1.878	1.860	-0.115	0.040	0.041
0.084	19.818	0.043	0.092	-0.319	0.010	0.834	0.365	0.193	1.384	1.875	1.853	-0.114	0.036	0.035
0.084	19.827	0.043	0.090	-0.324	-0.007	0.799	0.376	0.120	1.415	1.882	1.863	-0.117	0.034	0.031
0.085	19.812	0.044	0.087	-0.327	-0.024	0.778	0.383	0.090	1.425	1.884	1.862	-0.117	0.031	0.028
0.085	19.833	0.045	0.086	-0.329	-0.039	0.785	0.391	0.118	1.404	1.885	1.868	-0.117	0.028	0.026
0.085	19.830	0.044	0.082	-0.328	-0.052	0.762	0.395	0.183	1.384	1.879	1.857	-0.119	0.027	0.024
0.085	19.836	0.044	0.082	-0.326	-0.064	0.776	0.434	0.246	1.366	1.875	1.852	-0.119	0.022	0.023
0.085	19.824	0.044	0.078	-0.323	-0.074	0.773	0.450	0.293	1.363	1.887	1.858	-0.120	0.020	0.023
0.086	19.824	0.045	0.076	-0.320	-0.082	0.768	0.486	0.282	1.394	1.876	1.862	-0.121	0.018	0.025
0.086	19.815	0.046	0.073	-0.315	-0.090	0.751	0.485	0.264	1.437	1.890	1.851	-0.122	0.016	0.024
0.086	19.827	0.044	0.072	-0.309	-0.094	0.732	0.480	0.235	1.507	1.870	1.854	-0.122	0.014	0.026
0.086	19.827	0.046	0.069	-0.303	-0.096	0.740	0.483	0.267	1.530	1.886	1.861	-0.123	0.012	0.027
0.086	19.830	0.044	0.067	-0.299	-0.096	0.747	0.472	0.310	1.544	1.879	1.856	-0.124	0.010	0.029
0.087	19.821	0.042	0.064	-0.293	-0.094	0.764	0.482	0.351	1.489	1.873	1.850	-0.121	0.007	0.030
0.087	19.827	0.042	0.061	-0.287	-0.087	0.768	0.498	0.369	1.455	1.881	1.855	-0.125	0.005	0.031
0.087	19.830	0.040	0.058	-0.279	-0.080	0.785	0.532	0.403	1.411	1.878	1.858	-0.121	0.003	0.031
0.087	19.836	0.041	0.058	-0.271	-0.069	0.795	0.557	0.369	1.384	1.876	1.863	-0.121	-0.001	0.032
0.087	19.827	0.041	0.056	-0.260	-0.059	0.784	0.551	0.346	1.383	1.878	1.853	-0.119	-0.004	0.030
0.088	19.839	0.045	0.057	-0.250	-0.047	0.814	0.556	0.300	1.406	1.876	1.855	-0.117	-0.006	0.030
0.088	19.818	0.046	0.056	-0.238	-0.035	0.827	0.542	0.284	1.421	1.875	1.854	-0.115	-0.010	0.027
0.088	19.846	0.047	0.055	-0.226	-0.021	0.840	0.531	0.299	1.433	1.878	1.855	-0.112	-0.014	0.026
0.088	19.839	0.048	0.055	-0.213	-0.007	0.857	0.561	0.336	1.432	1.872	1.861	-0.106	-0.019	0.021
0.088	19.833	0.047	0.054	-0.199	0.008	0.849	0.571	0.384	1.418	1.870	1.858	-0.106	-0.022	0.021
0.089	19.843	0.046	0.055	-0.185	0.021	0.838	0.595	0.401	1.393	1.872	1.849	-0.101	-0.026	0.018
0.089	19.858	0.046	0.055	-0.173	0.033	0.805	0.611	0.391	1.387	1.881	1.849	-0.097	-0.029	0.015
0.089	19.852	0.045	0.056	-0.156	0.047	0.779	0.620	0.372	1.416	1.874	1.861	-0.094	-0.033	0.012
0.089	19.852	0.045	0.057	-0.142	0.057	0.772	0.616	0.380	1.445	1.876	1.854	-0.091	-0.035	0.012
0.089	19.846	0.044	0.058	-0.127	0.067	0.783	0.629	0.364	1.463	1.874	1.856	-0.088	-0.040	0.005
0.090	19.849	0.044	0.058	-0.111	0.074	0.778	0.620	0.351	1.480	1.874	1.854	-0.083	-0.041	0.001
0.090	19.846	0.043	0.058	-0.100	0.079	0.800	0.618	0.365	1.442	1.876	1.854	-0.078	-0.046	-0.003
0.090	19.836	0.041	0.058	-0.086	0.082	0.784	0.629	0.380	1.401	1.877	1.848	-0.074	-0.050	-0.005
0.090	19.836	0.040	0.055	-0.075	0.082	0.798	0.635	0.372	1.340	1.879	1.844	-0.074	-0.050	-0.007
0.090	19.843	0.036	0.054	-0.064	0.081	0.784	0.635	0.372	1.295	1.879	1.860	-0.071	-0.051	-0.011
0.091	19.852	0.035	0.052	-0.055	0.077	0.805	0.613	0.369	1.277	1.869	1.848	-0.070	-0.049	-0.013
0.091	19.858	0.032	0.049	-0.047	0.071	0.797	0.603	0.379	1.261	1.873	1.857	-0.068	-0.053	-0.019
0.091	19.843	0.032	0.048	-0.039	0.066	0.807	0.601	0.400	1.252	1.877	1.859	-0.068	-0.052	-0.018
0.091	19.861	0.031	0.044	-0.033	0.059	0.815	0.602	0.408	1.275	1.881	1.852	-0.067	-0.051	-0.017
0.091	19.849	0.032	0.041	-0.028	0.050	0.819	0.637	0.402	1.266	1.873	1.853	-0.067	-0.051	-0.022
0.092	19.846	0.033	0.039	-0.022	0.043	0.817	0.662	0.392	1.276	1.872	1.857	-0.070	-0.049	-0.023
0.092	19.858	0.028	0.039	-0.017	0.037	0.792	0.694	0.400	1.289	1.875	1.852	-0.070	-0.047	-0.026
0.092	19.867	0.027	0.037	-0.015	0.027	0.811	0.708	0.421	1.260	1.877	1.847	-0.071	-0.046	-0.026
0.092	19.852	0.021	0.036	-0.012	0.022	0.788	0.712	0.450	1.250	1.878	1.851	-0.073	-0.042	-0.029
0.092	19.855	0.015	0.035	-0.008	0.016	0.799	0.739	0.457	1.261	1.877	1.856	-0.073	-0.040	-0.029
0.093	19.861	0.012	0.034	-0.006	0.012	0.831	0.771	0.441	1.280	1.874	1.852	-0.077	-0.038	-0.030
0.093	19.858	0.007	0.034	-0.001	0.008	0.829	0.779	0.433	1.300	1.883	1.852	-0.080	-0.033	-0.031
0.093	19.839	0.008	0.036	0.002	0.008	0.835	0.797	0.419	1.321	1.886	1.860	-0.082	-0.029	-0.032
0.093	19.849	0.007	0.039	0.003	0.010	0.804	0.831	0.408	1.310	1.877	1.850	-0.084	-0.024	-0.034
0.093	19.864	0.010	0.043	0.006	0.013	0.812	0.837	0.388	1.282	1.883	1.850	-0.087	-0.020	-0.035
0.094	19.855	0.007	0.048	0.006	0.019	0.779	0.829	0.415	1.237	1.875	1.852	-0.089	-0.016	-0.035
0.094	19.861	0.007	0.052	0.007	0.028	0.781	0.809	0.410	1.207	1.873	1.860	-0.092	-0.011	-0.035
0.094	19.849	0.004	0.059	0.006	0.037	0.757	0.804	0.424	1.187	1.874	1.857	-0.095	-0.005	-0.036
0.094	19.879	0.001	0.064	0.003	0.049	0.754	0.789	0.420	1.199	1.875	1.861	-0.097	0.001	-0.036
0.094	19.849	-0.003	0.069	-0.000	0.060	0.736	0.791	0.407	1.241	1.882	1.857	-0.099	0.006	-0.038
0.095	19.855	-0.005	0.075	-0.004	0.073	0.710	0.797	0.392	1.258	1.871	1.855	-0.101	0.013	-0.037
0.095	19.846	-0.007	0.081	-0.012	0.084	0.700	0.809	0.368	1.266	1.868	1.855	-0.102	0.018	-0.040
0.095	19.864	-0.006	0.085	-0.018	0.094	0.665	0.792	0.387	1.246	1.878	1.844	-0.104	0.024	-0.040
0.095	19.852	-0.008	0.089	-0.027	0.103	0.658	0.785	0.414	1.186	1.881	1.851	-0.105	0.030	-0.043
0.095	19.873	-0.009	0.094	-0.036	0.112	0.665	0.781	0.444	1.166	1.877	1.855	-0.106	0.037	-0.044
0.096	19.867	-0.011	0.095	-0.045	0.117	0.681	0.775	0.471	1.143	1.879	1.855	-0.107	0.042	-0.045
0.096	19.870	-0.013	0.098	-0.055	0.122	0.695	0.769	0.495	1.172	1.878	1.855	-0.106	0.047	-0.048
0.096	19.858	-0.014	0.099	-0.065	0.121	0.672	0.762	0.500	1.213	1.875	1.854	-0.108	0.052	-0.049
0.096	19.846	-0.017	0.099	-0.073	0.118	0.644	0.764	0.478	1.246	1.873	1.851	-0.107	0.056	-0.050
0.096	19.855	-0.019	0.098	-0.081	0.113	0.619	0.751	0.416	1.269	1.879	1.854	-0.107	0.060	-0.051
0.097	19.849	-0.021	0.097	-0.087	0.105	0.579	0.741	0.390	1.234	1.876	1.847	-0.106	0.062	-0.053
0.097	19.855	-0.022	0.095	-0.093	0.093	0.573	0.736	0.392	1.198	1.874	1.848	-0.106	0.064	-0.054
0.097	19.846	-0.022	0.093	-0.097	0.080	0.587	0.743	0.432	1.140	1.879	1.847	-0.104	0.066	-0.055
0.097	19.876	-0.024	0.091	-0.100	0.063	0.585	0.748	0.465	1.086	1.873	1.853	-0.103	0.066	-0.056
0.097	19.852	-0.022	0.089	-0.101	0.047	0.627	0.755	0.477	1.076	1.878	1.856	-0.102	0.065	-0.056
0.098	19.858	-0.024	0.088	-0.101	0.029	0.613	0.738	0.471	1.080	1.883	1.848	-0.100	0.065	-0.056
0.098	19.830	-0.021	0.084	-0.102	0.012	0.598	0.743	0.420	1.115	1.873	1.850	-0.098	0.062	-0.055
0.098	19.864	-0.022	0.083	-0.101	-0.004	0.583	0.730	0.397	1.128	1.882	1.847	-0.097	0.060	-0.053
0.098	19.858	-0.022	0.080	-0.101	-0.018	0.561	0.696	0.368	1.096	1.877	1.850	-0.095	0.055	-0.053
0.098	19.864	-0.022	0.079	-0.101	-0.031	0.557	0.693	0.417	1.090	1.879	1.849	-0.092	0.051	-0.050
0.099	19.852	-0.020	0.077	-0.102	-0.039	0.548	0.692	0.489	1.053	1.879	1.852	-0.090	0.045	-0.050
0.099	19.858	-0.021	0.075	-0.103	-0.047	0.584	0.701	0.561	1.046	1.878	1.849	-0.088	0.039	-0.048
0.099	19.836	-0.023	0.074	-0.105	-0.053	0.607	0.719	0.607	1.083	1.879	1.845	-0.086	0.034	-0.046
0.099	19.870	-0.024	0.073	-0.108	-0.056	0.631	0.744	0.581	1.130	1.883	1.839	-0.084	0.027	-0.044
0.099	19.849	-0.024	0.070	-0.111	-0.058	0.627	0.762	0.534	1.202	1.885	1.846	-0.081	0.021	-0.041
0.100	19.864	-0.024	0.072	-0.115	-0.057	0.640	0.762	0.500	1.227	1.882	1.850	-0.077	0.014	-0.038
0.100	19.849	-0.026	0.072	-0.121	-0.055	0.628	0.765	0.474	1.192	1.876	1.847	-0.077	0.007	-0.036
0.100	19.864	-0.024	0.072	-0.123	-0.050	0.639	0.766	0.502	1.151	1.877	1.849	-0.074	0.001	-0.034
0.100	19.852	-0.022	0.073	-0.126	-0.045	0.658	0.768	0.570	1.066	1.882	1.847	-0.072	-0.006	-0.033
0.100	19.876	-0.021	0.072	-0.130	-0.040	0.651	0.779	0.601	1.060	1.875	1.845	-0.069	-0.014	-0.029
0.101	19.867	-0.020	0.072	-0.131	-0.033	0.702	0.791	0.605	1.084	1.883	1.850	-0.067	-0.021	-0.027
0.101	19.864	-0.022	0.070	-0.133	-0.028	0.678	0.800	0.580	1.129	1.891	1.844	-0.065	-0.025	-0.026
0.101	19.864	-0.021	0.072	-0.136	-0.022	0.696	0.837	0.537	1.185	1.879	1.840	-0.063	-0.031	-0.026
0.101	19.867	-0.021	0.069	-0.135	-0.016	0.703	0.844	0.507	1.202	1.877	1.840	-0.061	-0.037	-0.025
0.101	19.885	-0.022	0.065	-0.136	-0.011	0.724	0.839	0.490	1.179	1.877	1.839	-0.060	-0.042	-0.024
0.102	19.888	-0.020	0.062	-0.134	-0.006	0.727	0.853	0.541	1.134	1.876	1.833	-0.057	-0.047	-0.024
0.102	19.870	-0.020	0.058	-0.132	-0.003	0.734	0.827	0.575	1.122	1.884	1.838	-0.058	-0.049	-0.022
0.102	19.891	-0.020	0.055	-0.131	-0.001	0.739	0.839	0.587	1.116	1.873	1.840	-0.053	-0.053	-0.025
0.102	19.901	-0.018	0.050	-0.124	0.005	0.729	0.851	0.568	1.125	1.881	1.848	-0.055	-0.057	-0.022
0.102	19.885	-0.021	0.046	-0.117	0.009	0.722	0.866	0.540	1.151	1.876	1.842	-0.052	-0.060	-0.024
0.103	19.897	-0.020	0.041	-0.109	0.014	0.722	0.893	0.519	1.147	1.885	1.846	-0.053	-0.063	-0.023
0.103	19.885	-0.021	0.037	-0.102	0.022	0.732	0.900	0.490	1.129	1.877	1.846	-0.051	-0.065	-0.025
0.103	19.882	-0.022	0.030	-0.093	0.026	0.737	0.896	0.493	1.096	1.881	1.851	-0.049	-0.068	-0.025
0.103	19.891	-0.024	0.025	-0.083	0.033	0.740	0.890	0.500	1.094	1.878	1.846	-0.048	-0.071	-0.028
0.103	19.904	-0.025	0.020	-0.072	0.036	0.731	0.854	0.545	1.100	1.881	1.839	-0.047	-0.073	-0.029
0.104	19.888	-0.026	0.016	-0.064	0.043	0.710	0.854	0.546	1.130	1.882	1.846	-0.046	-0.076	-0.029
0.104	19.891	-0.026	0.011	-0.051	0.046	0.669	0.836	0.536	1.163	1.884	1.849	-0.045	-0.077	-0.033
0.104	19.897	-0.025	0.009	-0.041	0.049	0.644	0.831	0.509	1.179	1.878	1.847	-0.044	-0.080	-0.036
0.104	19.897	-0.022	0.006	-0.030	0.052	0.620	0.844	0.477	1.177	1.880	1.843	-0.043	-0.080	-0.038
0.104	19.901	-0.020	0.005	-0.020	0.051	0.620	0.840	0.457	1.175	1.879	1.845	-0.041	-0.082	-0.039
0.105	19.901	-0.018	0.005	-0.009	0.050	0.615	0.858	0.420	1.151	1.873	1.845	-0.040	-0.084	-0.045
0.105	19.897	-0.020	0.004	0.002	0.049	0.639	0.848	0.447	1.159	1.879	1.842	-0.039	-0.085	-0.048
0.105	19.894	-0.023	0.007	0.013	0.045	0.645	0.852	0.489	1.153	1.878	1.849	-0.039	-0.087	-0.053
0.105	19.928	-0.025	0.007	0.025	0.041	0.662	0.847	0.516	1.183	1.876	1.847	-0.038	-0.087	-0.055
0.105	19.885	-0.031	0.009	0.036	0.034	0.656	0.853	0.567	1.188	1.878	1.844	-0.038	-0.086	-0.061
0.106	19.901	-0.035	0.012	0.046	0.028	0.662	0.868	0.543	1.193	1.870	1.845	-0.038	-0.090	-0.065
0.106	19.882	-0.037	0.014	0.057	0.021	0.651	0.864	0.521	1.184	1.873	1.847	-0.038	-0.091	-0.069
0.106	19.916	-0.037	0.016	0.067	0.013	0.646	0.866	0.470	1.215	1.874	1.844	-0.038	-0.091	-0.071
0.106	19.891	-0.037	0.019	0.075	0.004	0.639	0.847	0.441	1.227	1.876	1.848	-0.040	-0.091	-0.072
0.106	19.916	-0.036	0.022	0.082	-0.003	0.633	0.833	0.457	1.263	1.878	1.843	-0.040	-0.089	-0.077
0.107	19.910	-0.033	0.022	0.086	-0.010	0.638	0.836	0.506	1.301	1.883	1.842	-0.042	-0.089	-0.080
0.107	19.916	-0.036	0.025	0.092	-0.016	0.605	0.848	0.558	1.319	1.874	1.848	-0.043	-0.087	-0.083
0.107	19.910	-0.035	0.027	0.095	-0.022	0.647	0.858	0.593	1.346	1.878	1.836	-0.046	-0.084	-0.085
0.107	19.907	-0.041	0.031	0.095	-0.027	0.660	0.874	0.617	1.358	1.882	1.840	-0.050	-0.081	-0.087
0.107	19.901	-0.042	0.033	0.095	-0.032	0.706	0.886	0.602	1.365	1.874	1.845	-0.052	-0.078	-0.087
0.108	19.919	-0.046	0.036	0.094	-0.035	0.714	0.883	0.561	1.375	1.879	1.845	-0.055	-0.075	-0.088
0.108	19.882	-0.047	0.041	0.090	-0.038	0.691	0.866	0.534	1.356	1.877	1.842	-0.059	-0.071	-0.086
0.108	19.928	-0.046	0.046	0.085	-0.039	0.667	0.869	0.537	1.336	1.878	1.837	-0.062	-0.068	-0.091
0.108	19.916	-0.045	0.049	0.078	-0.040	0.642	0.844	0.577	1.287	1.881	1.840	-0.068	-0.061	-0.090
0.108	19.907	-0.042	0.055	0.067	-0.038	0.662	0.850	0.628	1.277	1.877	1.846	-0.072	-0.055	-0.091
0.109	19.888	-0.043	0.060	0.057	-0.034	0.693	0.866	0.642	1.272	1.874	1.842	-0.075	-0.049	-0.091
0.109	19.910	-0.044	0.066	0.045	-0.029	0.753	0.846	0.599	1.293	1.872	1.845	-0.081	-0.043	-0.089
0.109	19.904	-0.045	0.074	0.030	-0.021	0.779	0.849	0.543	1.301	1.873	1.840	-0.084	-0.035	-0.087
0.109	19.888	-0.047	0.077	0.015	-0.012	0.812	0.840	0.498	1.331	1.866	1.838	-0.089	-0.031	-0.086
0.109	19.894	-0.048	0.081	0.000	-0.002	0.804	0.852	0.478	1.310	1.884	1.845	-0.093	-0.024	-0.083
0.110	19.894	-0.047	0.083	-0.015	0.012	0.798	0.854	0.519	1.283	1.867	1.841	-0.097	-0.019	-0.083
0.110	19.904	-0.042	0.086	-0.033	0.025	0.811	0.859	0.578	1.259	1.870	1.847	-0.104	-0.013	-0.078
0.110	19.907	-0.037	0.086	-0.048	0.039	0.820	0.862	0.648	1.251	1.866	1.835	-0.105	-0.008	-0.077
0.110	19.913	-0.032	0.087	-0.068	0.054	0.872	0.856	0.667	1.261	1.875	1.844	-0.108	-0.003	-0.073
0.110	19.891	-0.027	0.086	-0.083	0.066	0.916	0.859	0.658	1.257	1.868	1.839	-0.109	0.002	-0.071
0.111	19.919	-0.026	0.085	-0.099	0.077	0.973	0.846	0.602	1.278	1.876	1.835	-0.115	0.006	-0.067
0.111	19.897	-0.028	0.083	-0.115	0.087	0.974	0.848	0.555	1.285	1.884	1.840	-0.117	0.010	-0.063
0.111	19.907	-0.032	0.080	-0.129	0.095	0.933	0.839	0.523	1.287	1.867	1.845	-0.120	0.017	-0.059
0.111	19.888	-0.036	0.081	-0.143	0.101	0.906	0.862	0.529	1.266	1.866	1.843	-0.121	0.016	-0.060
0.111	19.897	-0.035	0.078	-0.154	0.105	0.904	0.864	0.553	1.251	1.871	1.840	-0.124	0.020	-0.051
0.112	19.894	-0.032	0.077	-0.165	0.103	0.923	0.866	0.585	1.231	1.873	1.844	-0.125	0.020	-0.047
0.112	19.901	-0.025	0.075	-0.176	0.100	0.953	0.898	0.584	1.200	1.872	1.841	-0.129	0.022	-0.043
0.112	19.882	-0.017	0.073	-0.182	0.090	0.957	0.866	0.555	1.202	1.870	1.845	-0.131	0.023	-0.041
0.112	19.910	-0.010	0.073	-0.189	0.077	0.967	0.849	0.514	1.208	1.871	1.840	-0.132	0.022	-0.036
0.112	19.879	-0.002	0.071	-0.195	0.062	0.969	0.820	0.484	1.231	1.864	1.846	-0.137	0.022	-0.033
0.113	19.904	-0.003	0.072	-0.200	0.044	0.923	0.781	0.465	1.239	1.870	1.849	-0.135	0.020	-0.029
0.113	19.879	-0.001	0.070	-0.202	0.030	0.910	0.761	0.484	1.264	1.879	1.839	-0.138	0.018	-0.025
0.113	19.894	-0.004	0.070	-0.201	0.010	0.884	0.749	0.542	1.272	1.884	1.840	-0.138	0.016	-0.021
0.113	19.876	-0.003	0.069	-0.202	-0.004	0.884	0.729	0.609	1.307	1.872	1.836	-0.140	0.015	-0.016
0.113	19.879	-0.001	0.069	-0.201	-0.020	0.893	0.732	0.662	1.314	1.877	1.835	-0.144	0.012	-0.014
0.114	19.894	0.003	0.069	-0.200	-0.032	0.888	0.734	0.660	1.366	1.872	1.841	-0.146	0.010	-0.012
0.114	19.882	0.008	0.068	-0.196	-0.040	0.874	0.743	0.630	1.416	1.880	1.840	-0.148	0.008	-0.008
0.114	19.897	0.013	0.067	-0.194	-0.050	0.828	0.727	0.578	1.438	1.875	1.838	-0.149	0.005	-0.006
0.114	19.876	0.016	0.066	-0.191	-0.052	0.790	0.705	0.529	1.435	1.870	1.845	-0.150	0.003	-0.002
0.114	19.901	0.015	0.064	-0.188	-0.054	0.755	0.657	0.520	1.435	1.876	1.841	-0.153	-0.000	-0.001
0.115	19.885	0.015	0.064	-0.185	-0.054	0.749	0.637	0.538	1.371	1.879	1.841	-0.152	-0.005	0.002
0.115	19.907	0.012	0.062	-0.181	-0.049	0.768	0.635	0.579	1.331	1.869	1.842	-0.156	-0.007	0.004
0.115	19.897	0.010	0.060	-0.179	-0.044	0.747	0.651	0.578	1.325	1.875	1.837	-0.157	-0.010	0.006
0.115	19.891	0.013	0.059	-0.177	-0.035	0.749	0.684	0.551	1.338	1.873	1.838	-0.156	-0.013	0.006
0.115	19.913	0.019	0.056	-0.175	-0.027	0.749	0.668	0.489	1.387	1.875	1.839	-0.157	-0.015	0.008
0.116	19.925	0.024	0.056	-0.174	-0.015	0.725	0.653	0.434	1.428	1.882	1.842	-0.157	-0.018	0.007
0.116	19.910	0.032	0.056	-0.173	-0.006	0.739	0.626	0.410	1.464	1.875	1.841	-0.157	-0.019	0.009
0.116	19.943	0.037	0.054	-0.171	0.006	0.692	0.589	0.423	1.456	1.880	1.841	-0.156	-0.022	0.007
0.116	19.922	0.041	0.054	-0.169	0.017	0.664	0.568	0.466	1.438	1.875	1.841	-0.156	-0.023	0.007
0.116	19.922	0.042	0.052	-0.165	0.027	0.642	0.574	0.523	1.425	1.884	1.851	-0.155	-0.026	0.004
0.117	19.925	0.041	0.052	-0.164	0.038	0.622	0.595	0.537	1.439	1.876	1.840	-0.153	-0.028	0.005
0.117	19.934	0.042	0.052	-0.160	0.046	0.626	0.618	0.529	1.471	1.876	1.838	-0.152	-0.029	0.003
0.117	19.919	0.041	0.053	-0.155	0.056	0.608	0.627	0.465	1.515	1.868	1.841	-0.149	-0.032	0.001
0.117	19.943	0.044	0.052	-0.148	0.064	0.614	0.606	0.408	1.550	1.873	1.837	-0.147	-0.033	0.000
0.117	19.922	0.049	0.052	-0.142	0.073	0.604	0.575	0.360	1.564	1.881	1.841	-0.143	-0.035	-0.004
0.118	19.931	0.053	0.051	-0.135	0.082	0.610	0.521	0.349	1.532	1.882	1.840	-0.142	-0.036	-0.006
0.118	19.919	0.060	0.051	-0.126	0.090	0.608	0.514	0.397	1.481	1.881	1.845	-0.138	-0.036	-0.008
0.118	19.928	0.061	0.052	-0.115	0.098	0.613	0.519	0.453	1.439	1.871	1.836	-0.135	-0.035	-0.010
0.118	19.949	0.069	0.051	-0.106	0.105	0.616	0.545	0.495	1.459	1.874	1.844	-0.132	-0.035	-0.012
0.118	19.940	0.069	0.049	-0.097	0.113	0.613	0.571	0.471	1.494	1.884	1.839	-0.128	-0.036	-0.013
0.119	19.952	0.069	0.047	-0.083	0.120	0.623	0.581	0.408	1.560	1.885	1.838	-0.127	-0.036	-0.016
0.119	19.934	0.070	0.045	-0.070	0.126	0.657	0.575	0.350	1.573	1.885	1.845	-0.121	-0.037	-0.016
0.119	19.965	0.072	0.042	-0.058	0.129	0.696	0.540	0.296	1.574	1.882	1.832	-0.118	-0.035	-0.019
0.119	19.931	0.077	0.039	-0.043	0.131	0.689	0.521	0.305	1.496	1.887	1.836	-0.116	-0.036	-0.020
0.119	19.952	0.081	0.041	-0.031	0.134	0.670	0.514	0.331	1.466	1.889	1.836	-0.113	-0.034	-0.021
0.120	19.925	0.086	0.040	-0.020	0.133	0.625	0.547	0.399	1.432	1.887	1.843	-0.111	-0.033	-0.020
0.120	19.952	0.089	0.038	-0.009	0.133	0.610	0.590	0.411	1.438	1.886	1.838	-0.108	-0.031	-0.019
0.120	19.922	0.089	0.037	0.000	0.133	0.629	0.598	0.376	1.475	1.872	1.837	-0.107	-0.030	-0.018
0.120	19.962	0.088	0.036	0.010	0.129	0.674	0.601	0.347	1.536	1.880	1.841	-0.108	-0.028	-0.016
0.120	19.952	0.086	0.035	0.017	0.127	0.719	0.589	0.319	1.611	1.878	1.844	-0.108	-0.026	-0.013
0.121	19.943	0.082	0.033	0.023	0.123	0.730	0.540	0.329	1.640	1.869	1.834	-0.108	-0.022	-0.011
0.121	19.943	0.086	0.033	0.030	0.119	0.725	0.516	0.350	1.623	1.887	1.838	-0.107	-0.023	-0.007
0.121	19.949	0.088	0.033	0.031	0.117	0.700	0.512	0.403	1.601	1.884	1.840	-0.107	-0.020	-0.002
0.121	19.940	0.092	0.033	0.035	0.113	0.678	0.534	0.483	1.538	1.881	1.838	-0.109	-0.019	0.001
0.121	19.943	0.095	0.037	0.036	0.110	0.675	0.583	0.540	1.505	1.885	1.840	-0.112	-0.016	0.004
0.122	19.940	0.099	0.038	0.037	0.107	0.668	0.596	0.531	1.528	1.887	1.834	-0.114	-0.014	0.010
0.122	19.943	0.100	0.041	0.038	0.102	0.692	0.598	0.458	1.579	1.887	1.836	-0.115	-0.012	0.011
0.122	19.925	0.101	0.045	0.039	0.100	0.715	0.592	0.374	1.668	1.880	1.844	-0.119	-0.009	0.016
0.122	19.931	0.097	0.047	0.038	0.097	0.738	0.536	0.292	1.707	1.886	1.839	-0.122	-0.007	0.020
0.122	19.934	0.094	0.052	0.036	0.097	0.737	0.487	0.246	1.684	1.881	1.838	-0.125	-0.005	0.024
0.123	19.919	0.092	0.054	0.034	0.097	0.710	0.471	0.239	1.649	1.883	1.842	-0.127	-0.002	0.025
0.123	19.922	0.088	0.056	0.035	0.096	0.693	0.472	0.264	1.593	1.878	1.837	-0.131	0.001	0.027
0.123	19.928	0.087	0.060	0.033	0.102	0.693	0.485	0.278	1.573	1.888	1.840	-0.134	0.002	0.028
0.123	19.925	0.085	0.063	0.030	0.104	0.715	0.480	0.316	1.572	1.875	1.830	-0.138	0.005	0.028
0.123	19.916	0.084	0.065	0.027	0.112	0.751	0.460	0.328	1.631	1.882	1.833	-0.140	0.008	0.027
0.124	19.913	0.081	0.067	0.023	0.121	0.748	0.433	0.326	1.690	1.880	1.835	-0.141	0.008	0.026
0.124	19.910	0.079	0.069	0.015	0.131	0.725	0.380	0.318	1.714	1.876	1.844	-0.143	0.011	0.023
0.124	19.919	0.076	0.073	0.010	0.144	0.711	0.346	0.305	1.699	1.878	1.836	-0.144	0.012	0.022
0.124	19.916	0.075	0.073	0.004	0.156	0.714	0.362	0.290	1.706	1.880	1.842	-0.145	0.014	0.016
0.124	19.919	0.071	0.075	-0.002	0.170	0.724	0.391	0.296	1.694	1.887	1.837	-0.146	0.015	0.013
0.125	19.928	0.070	0.076	-0.007	0.185	0.743	0.411	0.305	1.705	1.873	1.838	-0.145	0.017	0.008
0.125	19.913	0.070	0.077	-0.013	0.197	0.751	0.419	0.324	1.704	1.887	1.833	-0.146	0.016	0.005
0.125	19.922	0.070	0.076	-0.017	0.210	0.744	0.402	0.327	1.735	1.885	1.838	-0.144	0.020	0.001
0.125	19.897	0.070	0.077	-0.019	0.220	0.725	0.374	0.313	1.741	1.885	1.840	-0.142	0.022	-0.003
0.125	19.916	0.071	0.077	-0.022	0.230	0.701	0.348	0.299	1.731	1.888	1.844	-0.142	0.022	-0.006
0.126	19.897	0.072	0.077	-0.023	0.235	0.679	0.352	0.250	1.733	1.875	1.840	-0.141	0.022	-0.009
0.126	19.888	0.071	0.076	-0.023	0.239	0.665	0.357	0.223	1.729	1.880	1.841	-0.138	0.024	-0.012
0.126	19.882	0.069	0.075	-0.024	0.239	0.683	0.365	0.237	1.711	1.879	1.839	-0.138	0.023	-0.013
0.126	19.873	0.069	0.074	-0.023	0.237	0.711	0.375	0.270	1.721	1.875	1.837	-0.135	0.024	-0.013
0.126	19.882	0.068	0.074	-0.023	0.228	0.742	0.383	0.329	1.724	1.875	1.836	-0.134	0.026	-0.014
0.127	19.870	0.066	0.072	-0.023	0.218	0.762	0.379	0.330	1.720	1.884	1.839	-0.132	0.024	-0.014
0.127	19.876	0.067	0.071	-0.023	0.208	0.753	0.362	0.324	1.735	1.880	1.834	-0.131	0.025	-0.010
0.127	19.891	0.066	0.070	-0.024	0.193	0.730	0.376	0.310	1.708	1.876	1.839	-0.130	0.025	-0.008
0.127	19.867	0.066	0.070	-0.024	0.179	0.712	0.381	0.278	1.700	1.879	1.839	-0.128	0.024	-0.004
0.127	19.870	0.068	0.070	-0.025	0.164	0.726	0.387	0.265	1.654	1.875	1.835	-0.131	0.027	-0.001
0.128	19.885	0.070	0.069	-0.027	0.149	0.755	0.411	0.282	1.627	1.876	1.833	-0.130	0.028	0.005
0.128	19.867	0.072	0.068	-0.032	0.134	0.793	0.422	0.310	1.603	1.872	1.836	-0.130	0.027	0.010
0.128	19.870	0.073	0.068	-0.037	0.124	0.808	0.444	0.347	1.622	1.878	1.842	-0.132	0.027	0.018
0.128	19.864	0.073	0.065	-0.044	0.111	0.811	0.462	0.368	1.668	1.887	1.832	-0.134	0.029	0.025
0.128	19.885	0.074	0.062	-0.051	0.101	0.825	0.464	0.363	1.692	1.882	1.845	-0.135	0.028	0.031
0.129	19.849	0.074	0.059	-0.060	0.094	0.824	0.465	0.366	1.719	1.877	1.834	-0.137	0.030	0.040
0.129	19.882	0.073	0.056	-0.069	0.087	0.819	0.483	0.367	1.680	1.882	1.842	-0.140	0.030	0.046
0.129	19.888	0.074	0.053	-0.080	0.087	0.804	0.493	0.386	1.650	1.876	1.836	-0.143	0.032	0.052
0.129	19.858	0.073	0.052	-0.091	0.087	0.797	0.497	0.403	1.586	1.886	1.838	-0.146	0.032	0.061
0.129	19.888	0.075	0.050	-0.102	0.090	0.791	0.519	0.462	1.575	1.883	1.838	-0.147	0.035	0.067
0.130	19.858	0.076	0.049	-0.114	0.094	0.780	0.529	0.466	1.595	1.877	1.838	-0.149	0.035	0.076
0.130	19.879	0.077	0.049	-0.123	0.100	0.777	0.545	0.463	1.626	1.869	1.840	-0.151	0.036	0.083
0.130	19.849	0.081	0.047	-0.133	0.107	0.779	0.540	0.407	1.682	1.876	1.835	-0.153	0.035	0.089
0.130	19.864	0.080	0.047	-0.141	0.113	0.775	0.543	0.377	1.690	1.882	1.845	-0.156	0.037	0.093
0.130	19.849	0.084	0.046	-0.151	0.122	0.777	0.541	0.352	1.688	1.885	1.838	-0.155	0.036	0.099
0.131	19.870	0.082	0.045	-0.158	0.131	0.785	0.522	0.336	1.666	1.877	1.835	-0.155	0.036	0.103
0.131	19.864	0.083	0.044	-0.164	0.141	0.787	0.500	0.380	1.635	1.879	1.837	-0.153	0.037	0.107
0.131	19.876	0.082	0.041	-0.169	0.150	0.792	0.477	0.431	1.608	1.878	1.841	-0.153	0.032	0.108
0.131	19.852	0.084	0.037	-0.172	0.160	0.793	0.465	0.494	1.602	1.877	1.843	-0.152	0.033	0.112
0.131	19.864	0.083	0.034	-0.175	0.172	0.777	0.472	0.526	1.652	1.868	1.839	-0.149	0.033	0.110
0.132	19.843	0.084	0.034	-0.175	0.182	0.784	0.499	0.525	1.697	1.880	1.838	-0.146	0.026	0.110
0.132	19.864	0.086	0.029	-0.175	0.196	0.780	0.500	0.497	1.751	1.882	1.832	-0.141	0.024	0.112
0.132	19.849	0.087	0.029	-0.172	0.203	0.779	0.534	0.460	1.729	1.881	1.838	-0.136	0.017	0.109
0.132	19.827	0.089	0.024	-0.165	0.213	0.785	0.517	0.461	1.729	1.869	1.838	-0.132	0.013	0.111
0.132	19.852	0.088	0.021	-0.157	0.221	0.784	0.514	0.486	1.660	1.878	1.829	-0.125	0.007	0.103
0.133	19.836	0.087	0.017	-0.147	0.230	0.777	0.500	0.567	1.626	1.882	1.836	-0.121	0.001	0.100
0.133	19.870	0.085	0.015	-0.135	0.233	0.765	0.495	0.620	1.620	1.878	1.835	-0.115	-0.006	0.097
0.133	19.827	0.082	0.012	-0.123	0.236	0.764	0.516	0.648	1.646	1.877	1.841	-0.108	-0.013	0.091
0.133	19.852	0.080	0.009	-0.110	0.236	0.774	0.546	0.625	1.692	1.877	1.834	-0.102	-0.020	0.087
0.133	19.827	0.081	0.006	-0.096	0.233	0.784	0.579	0.584	1.723	1.882	1.842	-0.095	-0.028	0.080
0.134	19.833	0.080	0.003	-0.083	0.229	0.799	0.580	0.526	1.746	1.877	1.843	-0.089	-0.037	0.075
0.134	19.843	0.080	0.002	-0.069	0.217	0.799	0.562	0.523	1.723	1.876	1.844	-0.083	-0.043	0.067
0.134	19.849	0.080	0.001	-0.056	0.209	0.783	0.533	0.566	1.696	1.891	1.842	-0.081	-0.050	0.063
0.134	19.833	0.078	0.000	-0.045	0.194	0.779	0.521	0.641	1.646	1.882	1.843	-0.077	-0.056	0.055
0.134	19.855	0.076	0.002	-0.032	0.180	0.785	0.535	0.691	1.640	1.882	1.842	-0.075	-0.062	0.051
0.135	19.855	0.069	0.004	-0.024	0.165	0.811	0.543	0.699	1.645	1.878	1.839	-0.072	-0.067	0.043
0.135	19.852	0.064	0.006	-0.017	0.144	0.836	0.567	0.647	1.685	1.874	1.835	-0.070	-0.071	0.040
0.135	19.849	0.062	0.008	-0.010	0.129	0.869	0.585	0.586	1.710	1.871	1.848	-0.070	-0.076	0.033
0.135	19.846	0.059	0.009	-0.005	0.110	0.859	0.591	0.558	1.720	1.879	1.841	-0.070	-0.077	0.029
0.135	19.839	0.057	0.012	-0.003	0.095	0.848	0.589	0.553	1.701	1.886	1.841	-0.071	-0.080	0.025
0.136	19.852	0.056	0.012	-0.002	0.081	0.803	0.577	0.609	1.659	1.883	1.838	-0.072	-0.081	0.019
0.136	19.839	0.054	0.016	-0.002	0.068	0.787	0.578	0.656	1.617	1.885	1.843	-0.075	-0.082	0.016
0.136	19.830	0.054	0.018	-0.005	0.057	0.784	0.587	0.705	1.567	1.880	1.847	-0.078	-0.081	0.012
0.136	19.839	0.051	0.020	-0.006	0.051	0.799	0.583	0.704	1.576	1.885	1.844	-0.080	-0.079	0.008
0.136	19.846	0.048	0.022	-0.009	0.046	0.808	0.578	0.669	1.591	1.885	1.847	-0.084	-0.076	0.005
0.137	19.839	0.046	0.025	-0.010	0.046	0.824	0.550	0.611	1.611	1.884	1.841	-0.088	-0.072	0.002
0.137	19.846	0.044	0.029	-0.012	0.047	0.837	0.540	0.566	1.638	1.887	1.845	-0.092	-0.067	0.003
0.137	19.849	0.044	0.032	-0.015	0.050	0.820	0.496	0.555	1.623	1.877	1.842	-0.097	-0.060	0.000
0.137	19.846	0.043	0.037	-0.015	0.058	0.784	0.471	0.585	1.580	1.888	1.848	-0.101	-0.055	0.001
0.137	19.846	0.042	0.041	-0.017	0.062	0.747	0.457	0.646	1.547	1.885	1.838	-0.106	-0.046	0.002
0.138	19.830	0.042	0.045	-0.018	0.069	0.732	0.459	0.699	1.517	1.881	1.845	-0.111	-0.042	0.002
0.138	19.833	0.040	0.048	-0.018	0.078	0.722	0.465	0.681	1.537	1.887	1.851	-0.115	-0.034	0.003
0.138	19.852	0.040	0.051	-0.019	0.086	0.743	0.480	0.620	1.561	1.885	1.840	-0.120	-0.028	0.007
0.138	19.849	0.036	0.055	-0.018	0.095	0.750	0.465	0.562	1.583	1.890	1.842	-0.124	-0.020	0.009
0.138	19.849	0.033	0.057	-0.018	0.103	0.754	0.464	0.531	1.585	1.888	1.841	-0.129	-0.012	0.012
0.139	19.846	0.034	0.058	-0.015	0.111	0.749	0.463	0.535	1.556	1.889	1.846	-0.132	-0.005	0.017
0.139	19.836	0.033	0.057	-0.012	0.119	0.737	0.436	0.568	1.496	1.891	1.850	-0.135	0.001	0.022
0.139	19.833	0.033	0.056	-0.009	0.123	0.748	0.444	0.633	1.443	1.889	1.848	-0.140	0.007	0.026
0.139	19.879	0.033	0.055	-0.005	0.130	0.766	0.436	0.667	1.431	1.891	1.847	-0.143	0.013	0.033
0.139	19.873	0.034	0.054	-0.001	0.129	0.780	0.450	0.647	1.442	1.888	1.848	-0.145	0.016	0.038
0.140	19.882	0.031	0.054	0.004	0.132	0.790	0.462	0.615	1.503	1.887	1.843	-0.148	0.023	0.043
0.140	19.870	0.030	0.055	0.008	0.130	0.777	0.462	0.544	1.517	1.896	1.843	-0.150	0.026	0.046
0.140	19.858	0.030	0.057	0.012	0.128	0.768	0.490	0.507	1.513	1.894	1.847	-0.150	0.029	0.052
0.140	19.864	0.033	0.056	0.019	0.125	0.754	0.497	0.525	1.484	1.897	1.849	-0.152	0.031	0.054
0.140	19.879	0.035	0.056	0.024	0.117	0.751	0.500	0.572	1.409	1.892	1.849	-0.152	0.033	0.058
0.141	19.855	0.038	0.059	0.030	0.117	0.760	0.514	0.633	1.401	1.901	1.843	-0.155	0.032	0.061
0.141	19.873	0.041	0.060	0.035	0.109	0.787	0.526	0.640	1.381	1.894	1.841	-0.156	0.034	0.064
0.141	19.876	0.042	0.061	0.041	0.107	0.803	0.526	0.623	1.438	1.889	1.844	-0.156	0.033	0.064
0.141	19.876	0.046	0.064	0.044	0.100	0.829	0.534	0.581	1.443	1.891	1.850	-0.155	0.031	0.066
0.141	19.873	0.047	0.063	0.046	0.096	0.827	0.511	0.565	1.429	1.897	1.854	-0.155	0.027	0.067
0.142	19.888	0.045	0.067	0.047	0.091	0.793	0.517	0.575	1.430	1.894	1.856	-0.155	0.027	0.063
0.142	19.888	0.044	0.069	0.047	0.084	0.786	0.501	0.632	1.369	1.888	1.853	-0.155	0.022	0.066
0.142	19.916	0.041	0.072	0.046	0.082	0.737	0.484	0.664	1.365	1.893	1.850	-0.154	0.020	0.061
0.142	19.891	0.040	0.078	0.045	0.073	0.734	0.496	0.701	1.342	1.888	1.847	-0.154	0.016	0.060
0.142	19.907	0.040	0.079	0.043	0.072	0.741	0.473	0.731	1.359	1.888	1.844	-0.154	0.012	0.056
0.143	19.894	0.040	0.082	0.040	0.066	0.746	0.494	0.707	1.366	1.894	1.852	-0.153	0.008	0.055
0.143	19.907	0.041	0.081	0.037	0.065	0.756	0.492	0.696	1.385	1.887	1.850	-0.153	0.004	0.052
0.143	19.904	0.042	0.080	0.033	0.061	0.722	0.506	0.654	1.337	1.888	1.852	-0.151	0.000	0.050
0.143	19.928	0.042	0.077	0.032	0.060	0.693	0.485	0.641	1.305	1.890	1.850	-0.152	-0.005	0.047
0.143	19.925	0.040	0.074	0.031	0.060	0.657	0.473	0.645	1.269	1.888	1.847	-0.152	-0.007	0.046
0.144	19.928	0.038	0.071	0.031	0.061	0.644	0.438	0.651	1.203	1.894	1.850	-0.151	-0.012	0.043
0.144	19.916	0.036	0.067	0.030	0.065	0.641	0.422	0.664	1.196	1.899	1.855	-0.151	-0.013	0.042
0.144	19.943	0.034	0.065	0.030	0.067	0.647	0.427	0.672	1.172	1.888	1.854	-0.149	-0.019	0.039
0.144	19.937	0.034	0.062	0.028	0.072	0.670	0.435	0.662	1.202	1.892	1.852	-0.150	-0.022	0.042
0.144	19.940	0.032	0.059	0.028	0.079	0.672	0.439	0.666	1.181	1.892	1.853	-0.146	-0.026	0.038
0.145	19.940	0.033	0.056	0.027	0.086	0.670	0.469	0.635	1.207	1.889	1.852	-0.146	-0.029	0.039
0.145	19.952	0.033	0.052	0.026	0.095	0.648	0.453	0.650	1.219	1.882	1.854	-0.144	-0.030	0.036
0.145	19.952	0.032	0.052	0.027	0.101	0.644	0.429	0.666	1.176	1.891	1.856	-0.142	-0.036	0.036
0.145	19.943	0.030	0.048	0.027	0.112	0.643	0.407	0.698	1.189	1.896	1.849	-0.141	-0.038	0.036
0.145	19.946	0.029	0.045	0.027	0.125	0.652	0.368	0.753	1.183	1.886	1.849	-0.139	-0.041	0.033
0.146	19.934	0.027	0.042	0.028	0.137	0.656	0.383	0.764	1.196	1.889	1.853	-0.134	-0.044	0.034
0.146	19.949	0.028	0.038	0.030	0.154	0.676	0.388	0.790	1.201	1.903	1.856	-0.134	-0.048	0.032
0.146	19.949	0.026	0.038	0.032	0.170	0.655	0.419	0.801	1.184	1.886	1.858	-0.130	-0.050	0.033
0.146	19.934	0.029	0.036	0.035	0.186	0.647	0.453	0.811	1.174	1.895	1.854	-0.128	-0.053	0.031
0.146	19.919	0.031	0.035	0.038	0.200	0.642	0.465	0.819	1.126	1.889	1.849	-0.124	-0.053	0.032
0.147	19.934	0.033	0.036	0.043	0.219	0.632	0.464	0.833	1.090	1.897	1.854	-0.121	-0.058	0.032
0.147	19.931	0.035	0.035	0.049	0.231	0.642	0.433	0.834	1.101	1.895	1.862	-0.118	-0.061	0.035
0.147	19.931	0.035	0.036	0.056	0.246	0.635	0.421	0.840	1.111	1.889	1.854	-0.114	-0.064	0.029
0.147	19.925	0.036	0.036	0.064	0.255	0.656	0.422	0.826	1.139	1.897	1.861	-0.112	-0.066	0.033
0.147	19.931	0.034	0.037	0.073	0.266	0.657	0.444	0.821	1.161	1.886	1.857	-0.106	-0.070	0.032
0.148	19.916	0.035	0.038	0.081	0.270	0.663	0.459	0.805	1.181	1.886	1.852	-0.105	-0.071	0.034
0.148	19.907	0.035	0.039	0.095	0.275	0.676	0.493	0.791	1.159	1.888	1.860	-0.103	-0.074	0.036
0.148	19.913	0.036	0.040	0.107	0.275	0.662	0.489	0.785	1.144	1.891	1.858	-0.100	-0.074	0.035
0.148	19.925	0.039	0.041	0.120	0.270	0.651	0.478	0.774	1.099	1.892	1.857	-0.099	-0.076	0.039
0.148	19.922	0.039	0.043	0.132	0.268	0.620	0.448	0.756	1.115	1.895	1.859	-0.096	-0.075	0.040
0.149	19.888	0.039	0.046	0.145	0.257	0.608	0.443	0.752	1.065	1.891	1.854	-0.094	-0.078	0.040
0.149	19.876	0.037	0.048	0.160	0.249	0.605	0.448	0.764	1.088	1.887	1.859	-0.092	-0.078	0.037
0.149	19.901	0.038	0.048	0.168	0.233	0.610	0.468	0.788	1.068	1.894	1.861	-0.092	-0.078	0.039
0.149	19.891	0.035	0.049	0.180	0.223	0.629	0.499	0.801	1.081	1.890	1.848	-0.090	-0.077	0.036
0.149	19.904	0.034	0.049	0.188	0.204	0.641	0.486	0.815	1.060	1.891	1.862	-0.092	-0.076	0.036
0.150	19.891	0.032	0.048	0.196	0.190	0.650	0.470	0.832	1.057	1.899	1.855	-0.091	-0.073	0.030
0.150	19.876	0.033	0.048	0.201	0.174	0.666	0.447	0.808	1.082	1.896	1.863	-0.091	-0.073	0.031
0.150	19.879	0.031	0.046	0.207	0.158	0.668	0.396	0.792	1.074	1.889	1.860	-0.092	-0.073	0.028
0.150	19.876	0.031	0.047	0.210	0.144	0.653	0.378	0.795	1.098	1.891	1.857	-0.093	-0.070	0.026
0.150	19.891	0.032	0.046	0.214	0.129	0.631	0.377	0.798	1.064	1.898	1.856	-0.094	-0.068	0.020
0.151	19.876	0.030	0.046	0.217	0.116	0.619	0.396	0.834	1.056	1.896	1.859	-0.095	-0.065	0.016
0.151	19.879	0.028	0.045	0.216	0.103	0.598	0.434	0.839	1.023	1.892	1.856	-0.095	-0.063	0.012
0.151	19.864	0.024	0.044	0.219	0.094	0.601	0.444	0.825	1.008	1.895	1.857	-0.097	-0.059	0.008
0.151	19.873	0.019	0.042	0.218	0.083	0.592	0.440	0.834	1.046	1.902	1.861	-0.094	-0.057	0.002
0.151	19.867	0.016	0.041	0.216	0.073	0.594	0.426	0.792	1.016	1.897	1.853	-0.098	-0.058	-0.001
0.152	19.876	0.013	0.038	0.214	0.064	0.574	0.376	0.772	1.066	1.904	1.857	-0.098	-0.050	-0.006
0.152	19.864	0.010	0.041	0.210	0.058	0.558	0.372	0.739	1.027	1.897	1.864	-0.099	-0.048	-0.012
0.152	19.864	0.009	0.038	0.205	0.052	0.566	0.367	0.737	1.051	1.902	1.860	-0.099	-0.044	-0.014
0.152	19.870	0.010	0.041	0.197	0.046	0.550	0.378	0.756	1.039	1.898	1.861	-0.098	-0.042	-0.021
0.152	19.873	0.011	0.045	0.188	0.044	0.545	0.417	0.759	1.075	1.898	1.861	-0.099	-0.038	-0.021
0.153	19.858	0.011	0.049	0.177	0.042	0.555	0.412	0.783	1.094	1.901	1.864	-0.100	-0.035	-0.024
0.153	19.864	0.011	0.054	0.165	0.041	0.541	0.408	0.748	1.103	1.905	1.865	-0.099	-0.031	-0.024
0.153	19.852	0.010	0.058	0.150	0.041	0.540	0.377	0.687	1.118	1.896	1.861	-0.101	-0.027	-0.028
0.153	19.852	0.006	0.063	0.137	0.042	0.543	0.356	0.680	1.060	1.896	1.858	-0.100	-0.024	-0.030
0.153	19.870	0.004	0.066	0.118	0.046	0.549	0.366	0.679	1.031	1.895	1.866	-0.100	-0.020	-0.028
0.154	19.861	0.000	0.069	0.100	0.049	0.540	0.376	0.703	1.011	1.900	1.860	-0.100	-0.016	-0.030
0.154	19.855	-0.000	0.070	0.080	0.050	0.541	0.385	0.720	0.977	1.896	1.859	-0.100	-0.013	-0.027
0.154	19.855	-0.004	0.072	0.061	0.054	0.533	0.413	0.735	1.008	1.902	1.859	-0.100	-0.008	-0.028
0.154	19.849	-0.005	0.074	0.043	0.054	0.532	0.422	0.741	1.014	1.900	1.854	-0.100	-0.005	-0.024
0.154	19.867	-0.005	0.075	0.024	0.059	0.516	0.444	0.727	1.077	1.902	1.863	-0.099	0.001	-0.023
0.155	19.861	-0.006	0.077	0.007	0.058	0.511	0.454	0.695	1.084	1.908	1.861	-0.101	0.004	-0.018
0.155	19.849	-0.005	0.077	-0.011	0.061	0.513	0.471	0.632	1.127	1.892	1.856	-0.101	0.008	-0.017
0.155	19.849	-0.008	0.077	-0.025	0.060	0.512	0.472	0.592	1.131	1.899	1.860	-0.103	0.012	-0.009
0.155	19.858	-0.010	0.077	-0.041	0.058	0.528	0.471	0.583	1.137	1.896	1.858	-0.103	0.015	-0.006
0.155	19.849	-0.013	0.076	-0.055	0.054	0.532	0.502	0.553	1.115	1.895	1.863	-0.105	0.019	0.001
0.156	19.852	-0.015	0.075	-0.066	0.051	0.537	0.526	0.557	1.098	1.889	1.859	-0.107	0.022	0.005
0.156	19.864	-0.017	0.073	-0.080	0.040	0.525	0.556	0.581	1.074	1.898	1.863	-0.108	0.023	0.010
0.156	19.836	-0.017	0.069	-0.090	0.033	0.522	0.553	0.597	1.047	1.907	1.868	-0.110	0.026	0.016
0.156	19.864	-0.016	0.067	-0.101	0.023	0.502	0.553	0.589	1.039	1.898	1.864	-0.112	0.029	0.022
0.156	19.839	-0.012	0.064	-0.111	0.012	0.514	0.554	0.554	1.008	1.901	1.860	-0.114	0.028	0.029
0.157	19.839	-0.012	0.062	-0.121	0.003	0.530	0.591	0.532	0.972	1.906	1.857	-0.116	0.029	0.033
0.157	19.858	-0.011	0.059	-0.131	-0.006	0.562	0.605	0.521	0.931	1.902	1.862	-0.117	0.029	0.039
0.157	19.827	-0.007	0.056	-0.140	-0.014	0.591	0.650	0.535	0.892	1.904	1.866	-0.120	0.028	0.045
0.157	19.833	-0.008	0.052	-0.151	-0.021	0.601	0.653	0.553	0.897	1.902	1.867	-0.121	0.027	0.050
0.157	19.846	-0.008	0.048	-0.161	-0.025	0.592	0.623	0.548	0.883	1.915	1.864	-0.122	0.025	0.054
0.158	19.836	-0.007	0.044	-0.172	-0.027	0.577	0.606	0.523	0.955	1.907	1.864	-0.123	0.022	0.057
0.158	19.855	-0.006	0.041	-0.180	-0.028	0.571	0.595	0.464	0.973	1.904	1.862	-0.125	0.019	0.060
0.158	19.846	-0.005	0.038	-0.191	-0.027	0.579	0.592	0.420	1.028	1.908	1.862	-0.126	0.017	0.061
0.158	19.827	-0.005	0.036	-0.200	-0.024	0.614	0.592	0.386	1.007	1.902	1.862	-0.125	0.014	0.061
0.158	19.827	-0.004	0.032	-0.204	-0.021	0.623	0.601	0.410	0.971	1.914	1.860	-0.125	0.009	0.060
0.159	19.827	-0.001	0.032	-0.210	-0.016	0.637	0.620	0.432	0.929	1.906	1.865	-0.127	0.007	0.059
0.159	19.830	0.000	0.031	-0.210	-0.011	0.642	0.587	0.462	0.872	1.913	1.869	-0.126	0.002	0.057
0.159	19.821	0.004	0.031	-0.211	-0.008	0.637	0.559	0.451	0.892	1.914	1.865	-0.125	-0.001	0.054
0.159	19.836	0.007	0.033	-0.209	-0.003	0.603	0.548	0.407	0.890	1.912	1.865	-0.125	-0.005	0.051
0.159	19.833	0.008	0.032	-0.209	-0.002	0.601	0.506	0.354	0.944	1.912	1.862	-0.123	-0.009	0.046
0.160	19.830	0.010	0.033	-0.208	-0.001	0.603	0.492	0.320	0.930	1.914	1.861	-0.122	-0.012	0.043
0.160	19.824	0.014	0.034	-0.205	0.002	0.610	0.492	0.332	0.943	1.908	1.861	-0.121	-0.016	0.037
0.160	19.812	0.014	0.034	-0.205	0.003	0.625	0.480	0.388	0.936	1.918	1.861	-0.119	-0.018	0.031
0.160	19.818	0.015	0.033	-0.202	0.007	0.617	0.481	0.432	0.971	1.919	1.863	-0.118	-0.021	0.026
0.160	19.806	0.016	0.030	-0.200	0.010	0.618	0.451	0.448	0.991	1.915	1.867	-0.116	-0.023	0.021
0.161	19.821	0.018	0.027	-0.199	0.013	0.619	0.424	0.431	1.030	1.912	1.865	-0.115	-0.025	0.018
0.161	19.806	0.019	0.024	-0.195	0.018	0.621	0.393	0.396	1.017	1.914	1.866	-0.112	-0.027	0.013
0.161	19.812	0.022	0.020	-0.190	0.022	0.634	0.367	0.350	1.030	1.918	1.867	-0.113	-0.029	0.012
0.161	19.809	0.021	0.016	-0.182	0.027	0.638	0.354	0.322	1.003	1.911	1.865	-0.112	-0.028	0.009
0.161	19.785	0.021	0.015	-0.174	0.032	0.663	0.356	0.308	0.962	1.909	1.864	-0.110	-0.031	0.008
0.162	19.794	0.023	0.011	-0.164	0.037	0.688	0.343	0.308	0.978	1.923	1.865	-0.109	-0.034	0.009
0.162	19.800	0.024	0.008	-0.153	0.043	0.683	0.350	0.295	0.993	1.913	1.865	-0.108	-0.032	0.008
0.162	19.803	0.024	0.008	-0.142	0.050	0.700	0.325	0.243	1.008	1.911	1.863	-0.107	-0.037	0.009
0.162	19.809	0.023	0.002	-0.129	0.058	0.699	0.287	0.215	1.063	1.925	1.855	-0.106	-0.036	0.014
0.162	19.803	0.020	0.003	-0.117	0.063	0.672	0.243	0.165	1.083	1.918	1.863	-0.105	-0.038	0.015
0.163	19.781	0.019	-0.001	-0.104	0.074	0.659	0.206	0.136	1.125	1.919	1.863	-0.106	-0.038	0.018
0.163	19.781	0.018	-0.001	-0.089	0.080	0.663	0.209	0.119	1.108	1.911	1.861	-0.105	-0.040	0.020
0.163	19.785	0.016	-0.006	-0.074	0.089	0.668	0.196	0.117	1.093	1.919	1.862	-0.107	-0.041	0.024
0.163	19.788	0.014	-0.007	-0.056	0.095	0.679	0.239	0.154	1.080	1.913	1.865	-0.107	-0.042	0.027
0.163	19.788	0.012	-0.010	-0.039	0.101	0.691	0.241	0.185	1.054	1.919	1.869	-0.108	-0.042	0.031
0.164	19.778	0.011	-0.014	-0.022	0.106	0.692	0.234	0.192	1.055	1.922	1.858	-0.109	-0.044	0.035
0.164	19.788	0.009	-0.015	-0.005	0.109	0.683	0.239	0.193	1.043	1.913	1.866	-0.111	-0.045	0.036
0.164	19.781	0.007	-0.017	0.009	0.113	0.689	0.221	0.173	1.093	1.914	1.860	-0.112	-0.046	0.038
0.164	19.785	0.003	-0.018	0.023	0.117	0.680	0.237	0.150	1.062	1.914	1.861	-0.114	-0.043	0.038
0.164	19.772	-0.000	-0.019	0.035	0.121	0.698	0.259	0.126	1.069	1.910	1.866	-0.117	-0.047	0.038
0.165	19.775	-0.006	-0.021	0.044	0.123	0.716	0.288	0.098	1.017	1.911	1.864	-0.118	-0.046	0.038
0.165	19.781	-0.010	-0.022	0.054	0.127	0.751	0.299	0.117	1.019	1.920	1.867	-0.120	-0.046	0.036
0.165	19.775	-0.015	-0.023	0.060	0.131	0.754	0.318	0.108	0.991	1.916	1.864	-0.125	-0.046	0.036
0.165	19.788	-0.018	-0.023	0.069	0.134	0.720	0.305	0.111	1.035	1.910	1.868	-0.127	-0.046	0.030
0.165	19.778	-0.018	-0.025	0.074	0.135	0.684	0.292	0.094	1.092	1.917	1.868	-0.131	-0.044	0.027
0.166	19.763	-0.021	-0.026	0.079	0.136	0.629	0.280	0.089	1.111	1.910	1.860	-0.132	-0.043	0.021
0.166	19.794	-0.020	-0.026	0.082	0.137	0.599	0.286	0.095	1.148	1.913	1.866	-0.134	-0.040	0.016
0.166	19.775	-0.021	-0.026	0.086	0.134	0.582	0.302	0.081	1.119	1.922	1.854	-0.135	-0.038	0.011
0.166	19.785	-0.024	-0.026	0.086	0.131	0.590	0.320	0.071	1.130	1.913	1.861	-0.140	-0.035	0.005
0.166	19.788	-0.029	-0.023	0.084	0.128	0.607	0.339	0.057	1.117	1.927	1.868	-0.143	-0.032	-0.001
0.167	19.781	-0.032	-0.023	0.081	0.123	0.606	0.352	0.039	1.137	1.914	1.867	-0.146	-0.027	-0.007
0.167	19.781	-0.037	-0.020	0.074	0.118	0.606	0.343	0.005	1.154	1.921	1.865	-0.149	-0.028	-0.013
0.167	19.769	-0.040	-0.018	0.067	0.114	0.571	0.315	0.012	1.169	1.916	1.859	-0.151	-0.022	-0.018
0.167	19.791	-0.040	-0.016	0.055	0.111	0.544	0.307	0.034	1.181	1.914	1.856	-0.154	-0.019	-0.024
0.167	19.778	-0.040	-0.012	0.043	0.108	0.520	0.305	0.077	1.161	1.915	1.859	-0.157	-0.015	-0.030
0.168	19.778	-0.040	-0.012	0.028	0.108	0.523	0.307	0.085	1.127	1.910	1.858	-0.158	-0.013	-0.033
0.168	19.788	-0.041	-0.008	0.012	0.108	0.524	0.318	0.040	1.096	1.918	1.866	-0.157	-0.009	-0.037
0.168	19.781	-0.045	-0.005	-0.006	0.110	0.548	0.311	0.008	1.091	1.917	1.872	-0.162	-0.007	-0.041
0.168	19.775	-0.047	-0.003	-0.024	0.115	0.538	0.307	-0.025	1.098	1.919	1.871	-0.162	-0.002	-0.045
0.168	19.766	-0.051	0.001	-0.040	0.119	0.551	0.282	-0.013	1.125	1.911	1.867	-0.163	-0.003	-0.048
0.169	19.788	-0.054	0.003	-0.059	0.125	0.535	0.260	0.002	1.172	1.913	1.856	-0.164	-0.002	-0.050
0.169	19.769	-0.054	0.004	-0.077	0.132	0.535	0.233	0.009	1.225	1.921	1.858	-0.163	-0.000	-0.052
0.169	19.775	-0.052	0.006	-0.093	0.141	0.543	0.213	0.016	1.233	1.916	1.860	-0.162	-0.001	-0.052
0.169	19.772	-0.049	0.006	-0.112	0.147	0.551	0.203	0.014	1.238	1.918	1.865	-0.161	-0.001	-0.051
0.169	19.785	-0.048	0.006	-0.130	0.152	0.569	0.198	-0.015	1.244	1.914	1.862	-0.160	-0.002	-0.052
0.170	19.781	-0.046	0.004	-0.144	0.158	0.586	0.208	-0.027	1.209	1.908	1.860	-0.160	-0.004	-0.050
0.170	19.803	-0.049	0.002	-0.159	0.159	0.603	0.218	-0.040	1.219	1.911	1.857	-0.160	-0.004	-0.047
0.170	19.772	-0.054	0.001	-0.169	0.160	0.615	0.218	-0.024	1.202	1.914	1.858	-0.158	-0.005	-0.046
0.170	19.788	-0.059	-0.001	-0.177	0.157	0.608	0.209	-0.020	1.213	1.916	1.864	-0.158	-0.010	-0.039
0.170	19.775	-0.066	-0.002	-0.184	0.153	0.613	0.197	-0.008	1.243	1.918	1.871	-0.156	-0.014	-0.036
0.171	19.785	-0.070	-0.004	-0.189	0.147	0.618	0.180	-0.044	1.217	1.914	1.859	-0.156	-0.018	-0.027
0.171	19.800	-0.071	-0.005	-0.191	0.140	0.609	0.183	-0.076	1.232	1.917	1.860	-0.155	-0.021	-0.025
0.171	19.788	-0.067	-0.008	-0.192	0.128	0.638	0.194	-0.138	1.237	1.920	1.858	-0.154	-0.025	-0.018
0.171	19.778	-0.066	-0.010	-0.191	0.115	0.666	0.207	-0.169	1.256	1.914	1.863	-0.157	-0.031	-0.011
0.171	19.772	-0.066	-0.011	-0.190	0.101	0.686	0.207	-0.206	1.285	1.908	1.862	-0.155	-0.032	-0.004
0.172	19.778	-0.064	-0.011	-0.185	0.084	0.704	0.211	-0.192	1.284	1.912	1.866	-0.152	-0.039	0.003
0.172	19.788	-0.068	-0.014	-0.181	0.067	0.731	0.196	-0.158	1.294	1.917	1.859	-0.156	-0.044	0.012
0.172	19.778	-0.075	-0.016	-0.173	0.049	0.718	0.171	-0.106	1.261	1.913	1.862	-0.157	-0.045	0.019
0.172	19.772	-0.078	-0.018	-0.171	0.033	0.757	0.170	-0.069	1.262	1.913	1.858	-0.159	-0.050	0.027
0.172	19.788	-0.082	-0.023	-0.164	0.020	0.750	0.148	-0.057	1.252	1.916	1.862	-0.160	-0.049	0.034
0.173	19.794	-0.083	-0.024	-0.158	0.008	0.771	0.162	-0.088	1.300	1.918	1.856	-0.162	-0.054	0.039
0.173	19.791	-0.083	-0.029	-0.154	-0.002	0.793	0.184	-0.119	1.322	1.910	1.856	-0.164	-0.056	0.049
0.173	19.791	-0.081	-0.030	-0.146	-0.010	0.802	0.215	-0.133	1.372	1.908	1.862	-0.166	-0.058	0.055
0.173	19.794	-0.080	-0.034	-0.144	-0.015	0.799	0.237	-0.153	1.380	1.906	1.859	-0.167	-0.059	0.060
0.173	19.803	-0.081	-0.038	-0.135	-0.018	0.797	0.255	-0.125	1.372	1.913	1.854	-0.170	-0.061	0.067
0.174	19.785	-0.083	-0.042	-0.129	-0.021	0.784	0.256	-0.084	1.357	1.907	1.859	-0.172	-0.062	0.070
0.174	19.800	-0.088	-0.046	-0.123	-0.023	0.771	0.262	-0.096	1.342	1.908	1.857	-0.175	-0.063	0.073
0.174	19.791	-0.092	-0.050	-0.117	-0.023	0.766	0.271	-0.129	1.344	1.913	1.866	-0.174	-0.064	0.078
0.174	19.809	-0.093	-0.052	-0.112	-0.023	0.783	0.300	-0.181	1.344	1.909	1.856	-0.175	-0.062	0.080
0.174	19.818	-0.094	-0.054	-0.106	-0.023	0.793	0.320	-0.196	1.365	1.914	1.850	-0.177	-0.064	0.080
0.175	19.809	-0.091	-0.054	-0.106	-0.019	0.812	0.355	-0.182	1.383	1.918	1.853	-0.176	-0.062	0.081
0.175	19.788	-0.085	-0.056	-0.102	-0.015	0.805	0.363	-0.140	1.402	1.916	1.851	-0.176	-0.063	0.080
0.175	19.800	-0.079	-0.056	-0.101	-0.008	0.792	0.361	-0.108	1.418	1.911	1.857	-0.174	-0.062	0.078
0.175	19.809	-0.076	-0.058	-0.099	-0.001	0.765	0.373	-0.104	1.413	1.917	1.858	-0.175	-0.062	0.077
0.175	19.800	-0.075	-0.059	-0.097	0.008	0.746	0.352	-0.124	1.437	1.916	1.855	-0.170	-0.061	0.075
0.176	19.812	-0.076	-0.059	-0.092	0.015	0.742	0.366	-0.158	1.476	1.912	1.860	-0.169	-0.061	0.073
0.176	19.818	-0.080	-0.060	-0.089	0.022	0.755	0.374	-0.196	1.496	1.905	1.855	-0.165	-0.061	0.068
0.176	19.827	-0.083	-0.060	-0.086	0.029	0.772	0.385	-0.228	1.528	1.912	1.854	-0.161	-0.061	0.064
0.176	19.806	-0.085	-0.062	-0.078	0.036	0.796	0.403	-0.217	1.512	1.909	1.853	-0.159	-0.063	0.059
0.176	19.812	-0.081	-0.064	-0.074	0.045	0.799	0.409	-0.195	1.504	1.906	1.855	-0.153	-0.062	0.054
0.177	19.800	-0.077	-0.066	-0.065	0.051	0.759	0.421	-0.136	1.483	1.907	1.852	-0.147	-0.065	0.049
0.177	19.788	-0.072	-0.066	-0.061	0.061	0.716	0.424	-0.110	1.474	1.914	1.859	-0.143	-0.068	0.044
0.177	19.806	-0.065	-0.068	-0.053	0.070	0.683	0.426	-0.130	1.495	1.907	1.856	-0.137	-0.068	0.038
0.177	19.806	-0.063	-0.069	-0.041	0.081	0.680	0.426	-0.175	1.534	1.909	1.861	-0.132	-0.071	0.032
0.177	19.821	-0.062	-0.074	-0.031	0.092	0.678	0.449	-0.232	1.580	1.910	1.856	-0.126	-0.073	0.028
0.178	19.818	-0.064	-0.077	-0.018	0.102	0.704	0.432	-0.230	1.581	1.915	1.856	-0.122	-0.074	0.023
0.178	19.827	-0.067	-0.078	-0.003	0.114	0.731	0.436	-0.207	1.573	1.915	1.859	-0.117	-0.076	0.017
0.178	19.797	-0.069	-0.084	0.009	0.123	0.731	0.439	-0.168	1.543	1.913	1.855	-0.110	-0.079	0.011
0.178	19.809	-0.069	-0.086	0.022	0.131	0.700	0.436	-0.131	1.547	1.914	1.857	-0.107	-0.081	0.007
0.178	19.794	-0.067	-0.089	0.034	0.137	0.653	0.458	-0.138	1.514	1.918	1.855	-0.102	-0.083	0.002
0.179	19.809	-0.063	-0.090	0.043	0.142	0.621	0.450	-0.163	1.545	1.926	1.846	-0.100	-0.083	-0.003
0.179	19.794	-0.062	-0.091	0.052	0.148	0.586	0.452	-0.223	1.552	1.918	1.849	-0.096	-0.084	-0.007
0.179	19.794	-0.061	-0.095	0.060	0.151	0.587	0.452	-0.259	1.608	1.922	1.848	-0.097	-0.085	-0.010
0.179	19.778	-0.064	-0.094	0.065	0.155	0.622	0.448	-0.272	1.623	1.914	1.851	-0.096	-0.086	-0.014
0.179	19.797	-0.068	-0.098	0.071	0.160	0.651	0.429	-0.243	1.653	1.920	1.852	-0.096	-0.085	-0.016
0.180	19.785	-0.072	-0.099	0.070	0.162	0.663	0.419	-0.184	1.675	1.911	1.843	-0.097	-0.085	-0.018
0.180	19.788	-0.075	-0.101	0.073	0.166	0.666	0.396	-0.134	1.700	1.917	1.846	-0.098	-0.085	-0.019
0.180	19.794	-0.076	-0.101	0.070	0.168	0.656	0.380	-0.099	1.699	1.918	1.851	-0.100	-0.083	-0.020
0.180	19.778	-0.075	-0.101	0.071	0.168	0.640	0.373	-0.066	1.705	1.918	1.850	-0.103	-0.081	-0.021
0.180	19.781	-0.072	-0.100	0.070	0.167	0.627	0.366	-0.047	1.710	1.911	1.849	-0.105	-0.077	-0.023
0.181	19.785	-0.070	-0.098	0.068	0.166	0.646	0.377	-0.028	1.698	1.906	1.847	-0.108	-0.074	-0.024
0.181	19.754	-0.067	-0.098	0.065	0.163	0.656	0.391	-0.025	1.683	1.914	1.852	-0.111	-0.071	-0.023
0.181	19.775	-0.070	-0.095	0.058	0.160	0.656	0.354	-0.032	1.694	1.914	1.847	-0.114	-0.066	-0.023
0.181	19.791	-0.071	-0.091	0.055	0.156	0.684	0.352	-0.075	1.687	1.910	1.845	-0.117	-0.063	-0.022
0.181	19.778	-0.073	-0.089	0.050	0.153	0.700	0.337	-0.144	1.684	1.915	1.853	-0.121	-0.056	-0.020
0.182	19.775	-0.080	-0.085	0.048	0.150	0.686	0.328	-0.163	1.694	1.910	1.849	-0.126	-0.050	-0.020
0.182	19.778	-0.080	-0.080	0.044	0.147	0.707	0.341	-0.138	1.693	1.912	1.855	-0.127	-0.046	-0.019
0.182	19.763	-0.081	-0.079	0.043	0.145	0.719	0.342	-0.131	1.686	1.912	1.847	-0.130	-0.037	-0.017
0.182	19.775	-0.084	-0.074	0.042	0.143	0.714	0.362	-0.122	1.682	1.915	1.853	-0.130	-0.033	-0.018
0.182	19.791	-0.079	-0.073	0.042	0.142	0.743	0.362	-0.159	1.675	1.914	1.846	-0.134	-0.026	-0.015
0.183	19.772	-0.081	-0.073	0.043	0.141	0.728	0.351	-0.137	1.672	1.912	1.858	-0.135	-0.022	-0.015
0.183	19.781	-0.080	-0.071	0.041	0.141	0.730	0.339	-0.143	1.688	1.911	1.852	-0.136	-0.015	-0.013
0.183	19.778	-0.080	-0.071	0.043	0.139	0.707	0.334	-0.107	1.706	1.906	1.853	-0.136	-0.010	-0.015
0.183	19.785	-0.081	-0.070	0.040	0.138	0.699	0.330	-0.047	1.702	1.911	1.845	-0.136	-0.001	-0.014
0.183	19.772	-0.082	-0.069	0.042	0.138	0.703	0.331	0.008	1.674	1.916	1.852	-0.135	0.000	-0.014
0.184	19.781	-0.082	-0.070	0.039	0.140	0.708	0.338	0.031	1.642	1.901	1.855	-0.135	0.006	-0.014
0.184	19.772	-0.082	-0.072	0.037	0.142	0.727	0.348	0.013	1.602	1.907	1.848	-0.135	0.007	-0.014
0.184	19.775	-0.081	-0.074	0.034	0.144	0.723	0.340	-0.022	1.595	1.903	1.844	-0.130	0.011	-0.013
0.184	19.769	-0.078	-0.077	0.030	0.146	0.717	0.334	-0.083	1.611	1.907	1.847	-0.133	0.011	-0.012
0.184	19.788	-0.077	-0.077	0.026	0.146	0.706	0.310	-0.068	1.637	1.909	1.843	-0.129	0.015	-0.012
0.185	19.785	-0.073	-0.078	0.021	0.146	0.678	0.307	-0.086	1.648	1.911	1.840	-0.128	0.015	-0.012
0.185	19.794	-0.072	-0.080	0.016	0.143	0.688	0.299	-0.034	1.658	1.909	1.845	-0.126	0.016	-0.011
0.185	19.797	-0.072	-0.079	0.011	0.140	0.676	0.295	-0.013	1.638	1.909	1.845	-0.124	0.012	-0.009
0.185	19.781	-0.070	-0.080	0.006	0.136	0.679	0.301	0.005	1.605	1.902	1.845	-0.123	0.014	-0.009
0.185	19.803	-0.070	-0.081	0.001	0.132	0.663	0.295	0.017	1.560	1.911	1.843	-0.121	0.009	-0.004
0.186	19.794	-0.070	-0.083	-0.010	0.127	0.655	0.287	-0.032	1.550	1.905	1.846	-0.121	0.007	-0.005
0.186	19.815	-0.069	-0.084	-0.020	0.120	0.651	0.280	-0.053	1.561	1.911	1.841	-0.120	0.003	-0.004
0.186	19.803	-0.068	-0.082	-0.032	0.116	0.652	0.275	-0.058	1.589	1.902	1.846	-0.120	-0.002	-0.001
0.186	19.815	-0.066	-0.082	-0.049	0.113	0.650	0.277	-0.057	1.617	1.907	1.850	-0.118	-0.004	0.000
0.186	19.794	-0.062	-0.081	-0.060	0.111	0.662	0.289	-0.027	1.622	1.906	1.843	-0.121	-0.009	0.004
0.187	19.809	-0.063	-0.081	-0.073	0.109	0.665	0.311	0.009	1.636	1.901	1.852	-0.120	-0.012	0.008
0.187	19.809	-0.062	-0.083	-0.087	0.107	0.664	0.320	0.041	1.632	1.907	1.847	-0.121	-0.017	0.011
0.187	19.827	-0.062	-0.082	-0.100	0.108	0.654	0.330	0.043	1.642	1.898	1.843	-0.122	-0.019	0.016
0.187	19.839	-0.060	-0.081	-0.113	0.106	0.647	0.334	0.022	1.642	1.898	1.845	-0.124	-0.026	0.018
0.187	19.843	-0.060	-0.082	-0.127	0.106	0.643	0.325	-0.002	1.666	1.897	1.842	-0.125	-0.026	0.024
0.188	19.833	-0.059	-0.082	-0.136	0.104	0.629	0.332	-0.010	1.705	1.902	1.845	-0.128	-0.030	0.026
0.188	19.843	-0.060	-0.084	-0.150	0.104	0.635	0.326	0.017	1.724	1.902	1.840	-0.128	-0.030	0.030
0.188	19.830	-0.058	-0.084	-0.157	0.102	0.639	0.357	0.057	1.749	1.894	1.853	-0.129	-0.034	0.036
0.188	19.827	-0.058	-0.087	-0.171	0.103	0.656	0.378	0.076	1.722	1.894	1.845	-0.132	-0.034	0.038
0.188	19.839	-0.058	-0.084	-0.178	0.106	0.667	0.397	0.077	1.677	1.890	1.846	-0.135	-0.035	0.042
0.189	19.858	-0.058	-0.085	-0.187	0.108	0.676	0.410	0.054	1.663	1.899	1.845	-0.135	-0.035	0.046
0.189	19.833	-0.057	-0.083	-0.196	0.111	0.668	0.400	0.000	1.661	1.894	1.842	-0.139	-0.034	0.049
0.189	19.843	-0.056	-0.082	-0.200	0.118	0.658	0.393	-0.003	1.714	1.898	1.842	-0.140	-0.034	0.055
0.189	19.852	-0.054	-0.081	-0.204	0.123	0.667	0.410	-0.005	1.762	1.893	1.839	-0.140	-0.031	0.054
0.189	19.827	-0.053	-0.082	-0.202	0.129	0.668	0.419	0.022	1.774	1.887	1.833	-0.139	-0.033	0.056
0.190	19.849	-0.052	-0.081	-0.204	0.137	0.687	0.422	0.003	1.796	1.888	1.839	-0.140	-0.029	0.057
0.190	19.836	-0.053	-0.080	-0.201	0.145	0.695	0.456	0.011	1.767	1.889	1.848	-0.137	-0.032	0.058
0.190	19.836	-0.052	-0.083	-0.198	0.153	0.713	0.460	0.010	1.728	1.887	1.841	-0.139	-0.026	0.058
0.190	19.849	-0.052	-0.084	-0.192	0.162	0.731	0.494	0.014	1.717	1.892	1.843	-0.138	-0.026	0.057
0.190	19.852	-0.053	-0.088	-0.187	0.173	0.734	0.468	0.014	1.699	1.887	1.841	-0.137	-0.022	0.056
0.191	19.839	-0.053	-0.088	-0.179	0.185	0.719	0.481	-0.007	1.724	1.878	1.844	-0.135	-0.023	0.054
0.191	19.836	-0.052	-0.092	-0.171	0.197	0.707	0.486	-0.010	1.791	1.885	1.834	-0.133	-0.022	0.050
0.191	19.824	-0.050	-0.095	-0.164	0.210	0.706	0.500	-0.022	1.830	1.885	1.835	-0.132	-0.022	0.050
0.191	19.855	-0.050	-0.099	-0.154	0.223	0.708	0.533	0.012	1.823	1.882	1.836	-0.128	-0.021	0.042
0.191	19.824	-0.047	-0.102	-0.145	0.234	0.740	0.556	0.058	1.769	1.885	1.839	-0.126	-0.022	0.037
0.192	19.830	-0.049	-0.107	-0.134	0.244	0.751	0.562	0.150	1.730	1.877	1.842	-0.127	-0.021	0.031
0.192	19.830	-0.051	-0.110	-0.123	0.250	0.748	0.580	0.187	1.725	1.884	1.840	-0.120	-0.021	0.024
0.192	19.824	-0.051	-0.113	-0.112	0.255	0.780	0.551	0.175	1.751	1.896	1.842	-0.117	-0.024	0.019
0.192	19.818	-0.054	-0.118	-0.102	0.257	0.785	0.526	0.163	1.790	1.888	1.842	-0.115	-0.023	0.011
0.192	19.824	-0.054	-0.119	-0.091	0.254	0.792	0.542	0.124	1.826	1.887	1.839	-0.113	-0.027	0.004
0.193	19.815	-0.055	-0.123	-0.081	0.251	0.786	0.532	0.155	1.794	1.882	1.838	-0.111	-0.026	-0.002
0.193	19.815	-0.056	-0.124	-0.074	0.247	0.729	0.550	0.167	1.747	1.878	1.836	-0.108	-0.029	-0.010
0.193	19.806	-0.055	-0.126	-0.067	0.240	0.678	0.544	0.225	1.706	1.893	1.838	-0.108	-0.028	-0.017
0.193	19.818	-0.057	-0.127	-0.063	0.233	0.666	0.558	0.289	1.682	1.895	1.832	-0.105	-0.032	-0.022
0.193	19.809	-0.058	-0.128	-0.059	0.223	0.698	0.542	0.315	1.665	1.882	1.837	-0.107	-0.034	-0.027
0.194	19.827	-0.062	-0.127	-0.056	0.213	0.753	0.530	0.352	1.660	1.885	1.836	-0.106	-0.033	-0.032
0.194	19.809	-0.064	-0.126	-0.052	0.202	0.781	0.540	0.317	1.664	1.884	1.842	-0.108	-0.036	-0.035
0.194	19.797	-0.064	-0.125	-0.050	0.189	0.816	0.547	0.315	1.659	1.879	1.832	-0.111	-0.033	-0.038
0.194	19.812	-0.067	-0.123	-0.048	0.175	0.791	0.575	0.353	1.661	1.893	1.832	-0.111	-0.038	-0.040
0.194	19.806	-0.063	-0.123	-0.050	0.162	0.779	0.594	0.405	1.634	1.889	1.840	-0.115	-0.035	-0.039
0.195	19.827	-0.064	-0.121	-0.050	0.150	0.763	0.617	0.483	1.572	1.881	1.841	-0.117	-0.035	-0.042
0.195	19.809	-0.060	-0.117	-0.052	0.139	0.761	0.646	0.534	1.544	1.878	1.840	-0.121	-0.034	-0.042
0.195	19.812	-0.060	-0.114	-0.052	0.130	0.773	0.632	0.572	1.511	1.891	1.839	-0.125	-0.030	-0.040
0.195	19.803	-0.060	-0.109	-0.056	0.123	0.771	0.621	0.555	1.503	1.888	1.837	-0.129	-0.027	-0.039
0.195	19.800	-0.059	-0.102	-0.054	0.120	0.784	0.595	0.543	1.532	1.885	1.840	-0.135	-0.024	-0.036
0.196	19.818	-0.059	-0.099	-0.058	0.116	0.781	0.565	0.501	1.536	1.882	1.840	-0.140	-0.017	-0.032
0.196	19.809	-0.056	-0.094	-0.058	0.116	0.773	0.571	0.528	1.538	1.892	1.840	-0.144	-0.016	-0.028
0.196	19.797	-0.054	-0.088	-0.061	0.115	0.747	0.567	0.558	1.498	1.878	1.835	-0.151	-0.008	-0.023
0.196	19.821	-0.050	-0.083	-0.064	0.115	0.716	0.592	0.650	1.447	1.896	1.836	-0.156	-0.004	-0.019
0.196	19.815	-0.048	-0.077	-0.064	0.117	0.698	0.603	0.718	1.427	1.889	1.839	-0.161	0.004	-0.013
0.197	19.818	-0.046	-0.071	-0.066	0.118	0.683	0.601	0.729	1.440	1.880	1.846	-0.166	0.009	-0.010
0.197	19.794	-0.044	-0.065	-0.069	0.121	0.690	0.585	0.732	1.467	1.879	1.849	-0.169	0.015	-0.004
0.197	19.800	-0.044	-0.061	-0.071	0.124	0.687	0.553	0.684	1.520	1.878	1.842	-0.175	0.022	0.001
0.197	19.800	-0.046	-0.057	-0.073	0.129	0.674	0.541	0.679	1.511	1.886	1.842	-0.179	0.027	0.006
0.197	19.781	-0.044	-0.051	-0.077	0.133	0.641	0.562	0.698	1.471	1.881	1.835	-0.182	0.034	0.011
0.198	19.797	-0.045	-0.049	-0.078	0.136	0.635	0.572	0.744	1.401	1.884	1.837	-0.184	0.038	0.015
0.198	19.781	-0.044	-0.049	-0.081	0.142	0.642	0.609	0.777	1.332	1.884	1.836	-0.187	0.043	0.019
0.198	19.809	-0.043	-0.048	-0.083	0.145	0.643	0.620	0.760	1.316	1.890	1.839	-0.189	0.048	0.024
0.198	19.797	-0.042	-0.049	-0.085	0.143	0.670	0.639	0.748	1.324	1.886	1.835	-0.191	0.051	0.027
0.198	19.772	-0.042	-0.050	-0.086	0.142	0.699	0.641	0.682	1.357	1.892	1.838	-0.192	0.054	0.029
0.199	19.766	-0.043	-0.051	-0.087	0.136	0.692	0.654	0.663	1.361	1.893	1.841	-0.192	0.055	0.030
0.199	19.766	-0.047	-0.052	-0.089	0.130	0.714	0.648	0.633	1.350	1.893	1.838	-0.190	0.057	0.031
0.199	19.766	-0.048	-0.050	-0.089	0.120	0.691	0.678	0.682	1.305	1.893	1.842	-0.190	0.057	0.030
0.199	19.772	-0.050	-0.052	-0.090	0.111	0.651	0.699	0.717	1.306	1.889	1.841	-0.188	0.057	0.030
0.199	19.757	-0.048	-0.050	-0.090	0.098	0.639	0.725	0.768	1.322	1.886	1.833	-0.188	0.055	0.029
0.200	19.772	-0.047	-0.051	-0.092	0.085	0.631	0.726	0.807	1.351	1.885	1.841	-0.186	0.053	0.027
0.200	19.751	-0.047	-0.049	-0.091	0.070	0.652	0.738	0.795	1.408	1.880	1.833	-0.184	0.050	0.022
0.200	19.748	-0.045	-0.049	-0.091	0.057	0.684	0.722	0.832	1.439	1.886	1.838	-0.182	0.047	0.018
0.200	19.742	-0.043	-0.047	-0.090	0.041	0.740	0.722	0.783	1.468	1.888	1.840	-0.178	0.042	0.012
0.200	19.742	-0.045	-0.045	-0.089	0.026	0.763	0.725	0.797	1.448	1.884	1.844	-0.175	0.036	0.005
0.201	19.739	-0.046	-0.044	-0.089	0.010	0.766	0.741	0.775	1.396	1.890	1.840	-0.173	0.032	-0.001
0.201	19.754	-0.049	-0.041	-0.087	-0.007	0.743	0.754	0.826	1.355	1.880	1.837	-0.168	0.029	-0.012
0.201	19.754	-0.050	-0.039	-0.086	-0.025	0.715	0.784	0.856	1.302	1.879	1.840	-0.166	0.024	-0.022
0.201	19.745	-0.053	-0.040	-0.082	-0.043	0.684	0.773	0.886	1.302	1.870	1.844	-0.164	0.020	-0.031
0.201	19.748	-0.054	-0.034	-0.080	-0.060	0.681	0.741	0.857	1.302	1.885	1.835	-0.160	0.016	-0.039
0.202	19.730	-0.053	-0.032	-0.076	-0.076	0.710	0.705	0.824	1.309	1.882	1.840	-0.157	0.011	-0.050
0.202	19.720	-0.056	-0.030	-0.070	-0.089	0.735	0.665	0.785	1.338	1.888	1.838	-0.157	0.009	-0.059
0.202	19.745	-0.055	-0.029	-0.064	-0.106	0.744	0.656	0.746	1.368	1.887	1.843	-0.153	0.005	-0.069
0.202	19.733	-0.055	-0.031	-0.058	-0.118	0.761	0.669	0.775	1.394	1.876	1.843	-0.154	0.001	-0.077
0.202	19.730	-0.062	-0.033	-0.049	-0.130	0.723	0.688	0.812	1.425	1.880	1.834	-0.150	0.000	-0.086
0.203	19.727	-0.060	-0.036	-0.041	-0.140	0.693	0.704	0.851	1.433	1.875	1.839	-0.149	-0.001	-0.093
0.203	19.730	-0.064	-0.040	-0.032	-0.150	0.665	0.682	0.881	1.419	1.876	1.835	-0.147	-0.002	-0.100
0.203	19.724	-0.062	-0.042	-0.022	-0.159	0.675	0.643	0.889	1.406	1.876	1.844	-0.146	-0.004	-0.106
0.203	19.720	-0.063	-0.044	-0.013	-0.167	0.705	0.583	0.883	1.390	1.874	1.843	-0.145	-0.004	-0.110
0.203	19.711	-0.063	-0.046	-0.004	-0.173	0.738	0.540	0.847	1.349	1.884	1.840	-0.144	-0.006	-0.115
0.204	19.733	-0.060	-0.048	0.003	-0.175	0.752	0.541	0.837	1.344	1.881	1.840	-0.142	-0.003	-0.118
0.204	19.717	-0.058	-0.049	0.008	-0.176	0.744	0.562	0.801	1.314	1.888	1.844	-0.142	-0.005	-0.120
0.204	19.720	-0.059	-0.049	0.014	-0.173	0.722	0.610	0.833	1.305	1.878	1.835	-0.141	-0.005	-0.121
0.204	19.705	-0.059	-0.046	0.017	-0.166	0.707	0.635	0.894	1.299	1.868	1.834	-0.139	-0.005	-0.122
0.204	19.705	-0.060	-0.045	0.020	-0.158	0.706	0.627	0.942	1.288	1.879	1.843	-0.137	-0.006	-0.122
0.205	19.696	-0.059	-0.047	0.022	-0.147	0.732	0.582	0.997	1.275	1.873	1.850	-0.136	-0.007	-0.120
0.205	19.708	-0.060	-0.045	0.025	-0.135	0.739	0.529	1.011	1.286	1.873	1.839	-0.135	-0.007	-0.120
0.205	19.727	-0.057	-0.046	0.026	-0.120	0.755	0.484	1.043	1.311	1.880	1.840	-0.134	-0.008	-0.117
0.205	19.708	-0.053	-0.045	0.027	-0.104	0.742	0.463	1.007	1.334	1.883	1.835	-0.131	-0.008	-0.111
0.205	19.699	-0.049	-0.043	0.029	-0.089	0.714	0.476	0.972	1.331	1.878	1.834	-0.129	-0.013	-0.108
0.206	19.714	-0.046	-0.041	0.032	-0.072	0.683	0.492	0.959	1.324	1.872	1.839	-0.125	-0.015	-0.104
0.206	19.696	-0.043	-0.040	0.034	-0.056	0.655	0.498	0.997	1.276	1.871	1.835	-0.123	-0.018	-0.098
0.206	19.708	-0.040	-0.038	0.037	-0.041	0.651	0.493	1.023	1.240	1.863	1.843	-0.119	-0.021	-0.096
0.206	19.684	-0.040	-0.035	0.043	-0.028	0.669	0.464	1.031	1.207	1.872	1.833	-0.116	-0.025	-0.091
0.206	19.696	-0.041	-0.033	0.047	-0.016	0.714	0.437	1.016	1.168	1.877	1.844	-0.112	-0.030	-0.087
0.207	19.687	-0.043	-0.028	0.051	-0.006	0.735	0.435	0.954	1.167	1.875	1.841	-0.109	-0.034	-0.083
0.207	19.687	-0.042	-0.024	0.059	0.003	0.719	0.465	0.922	1.229	1.872	1.835	-0.104	-0.038	-0.078
0.207	19.675	-0.040	-0.022	0.066	0.006	0.705	0.499	0.870	1.266	1.869	1.846	-0.103	-0.042	-0.075
0.207	19.672	-0.039	-0.019	0.075	0.011	0.681	0.514	0.873	1.280	1.873	1.840	-0.097	-0.046	-0.071
0.207	19.666	-0.036	-0.018	0.082	0.013	0.658	0.520	0.882	1.258	1.872	1.840	-0.094	-0.053	-0.067
0.208	19.678	-0.035	-0.015	0.091	0.012	0.668	0.486	0.922	1.199	1.870	1.845	-0.091	-0.058	-0.063
0.208	19.681	-0.035	-0.015	0.100	0.010	0.667	0.461	0.953	1.131	1.866	1.840	-0.089	-0.061	-0.064
0.208	19.690	-0.037	-0.014	0.109	0.008	0.684	0.478	0.960	1.103	1.875	1.842	-0.087	-0.065	-0.063
0.208	19.684	-0.042	-0.015	0.115	0.006	0.707	0.500	0.947	1.112	1.868	1.835	-0.085	-0.069	-0.061
0.208	19.656	-0.046	-0.015	0.123	0.004	0.713	0.553	0.895	1.150	1.866	1.841	-0.081	-0.073	-0.063
0.209	19.684	-0.048	-0.015	0.129	0.001	0.736	0.605	0.846	1.172	1.856	1.842	-0.082	-0.075	-0.062
0.209	19.666	-0.051	-0.019	0.133	0.000	0.735	0.613	0.846	1.161	1.861	1.837	-0.078	-0.077	-0.063
0.209	19.644	-0.051	-0.018	0.137	-0.004	0.731	0.626	0.836	1.156	1.866	1.834	-0.079	-0.081	-0.065
0.209	19.641	-0.052	-0.019	0.139	-0.005	0.725	0.566	0.853	1.126	1.864	1.837	-0.077	-0.083	-0.067
0.209	19.650	-0.052	-0.020	0.138	-0.007	0.706	0.551	0.886	1.092	1.865	1.841	-0.078	-0.084	-0.070
0.210	19.647	-0.052	-0.019	0.137	-0.007	0.704	0.520	0.885	1.078	1.865	1.840	-0.074	-0.086	-0.074
0.210	19.662	-0.055	-0.022	0.133	-0.006	0.701	0.530	0.910	1.113	1.871	1.848	-0.075	-0.086	-0.077
0.210	19.662	-0.060	-0.021	0.127	-0.004	0.701	0.595	0.865	1.132	1.864	1.844	-0.074	-0.086	-0.082
0.210	19.662	-0.065	-0.024	0.120	0.000	0.716	0.619	0.802	1.184	1.864	1.841	-0.073	-0.087	-0.085
0.210	19.672	-0.070	-0.026	0.111	0.005	0.701	0.656	0.792	1.216	1.862	1.840	-0.073	-0.085	-0.090
0.211	19.681	-0.074	-0.026	0.103	0.012	0.699	0.659	0.773	1.201	1.864	1.845	-0.073	-0.085	-0.095
0.211	19.662	-0.079	-0.028	0.092	0.019	0.681	0.619	0.793	1.154	1.875	1.838	-0.072	-0.083	-0.098
0.211	19.687	-0.080	-0.025	0.082	0.027	0.663	0.605	0.814	1.119	1.870	1.844	-0.071	-0.083	-0.105
0.211	19.669	-0.080	-0.021	0.072	0.036	0.656	0.589	0.826	1.093	1.864	1.841	-0.070	-0.081	-0.109
0.211	19.678	-0.081	-0.018	0.061	0.047	0.638	0.619	0.833	1.114	1.868	1.844	-0.070	-0.079	-0.109
0.212	19.687	-0.079	-0.014	0.049	0.057	0.665	0.630	0.798	1.164	1.869	1.843	-0.067	-0.077	-0.118
0.212	19.659	-0.081	-0.007	0.038	0.069	0.680	0.641	0.776	1.209	1.862	1.843	-0.069	-0.075	-0.121
0.212	19.669	-0.083	-0.002	0.026	0.081	0.693	0.616	0.771	1.246	1.862	1.848	-0.069	-0.071	-0.127
0.212	19.675	-0.085	0.006	0.012	0.093	0.703	0.590	0.771	1.237	1.872	1.843	-0.066	-0.070	-0.130
0.212	19.675	-0.089	0.007	-0.001	0.109	0.696	0.553	0.804	1.193	1.866	1.841	-0.065	-0.066	-0.134
0.213	19.659	-0.091	0.012	-0.012	0.120	0.701	0.545	0.813	1.164	1.874	1.841	-0.063	-0.064	-0.138
0.213	19.662	-0.093	0.013	-0.021	0.134	0.703	0.542	0.880	1.152	1.872	1.840	-0.064	-0.061	-0.142
0.213	19.653	-0.092	0.015	-0.033	0.143	0.724	0.565	0.874	1.174	1.869	1.844	-0.063	-0.056	-0.145
0.213	19.656	-0.093	0.019	-0.041	0.151	0.740	0.587	0.895	1.223	1.854	1.845	-0.062	-0.051	-0.148
0.213	19.662	-0.093	0.022	-0.050	0.156	0.764	0.560	0.859	1.261	1.864	1.843	-0.064	-0.047	-0.151
0.214	19.662	-0.095	0.027	-0.056	0.158	0.774	0.546	0.825	1.272	1.864	1.846	-0.064	-0.042	-0.153
0.214	19.650	-0.094	0.027	-0.062	0.156	0.769	0.492	0.798	1.298	1.867	1.841	-0.065	-0.037	-0.152
0.214	19.656	-0.098	0.030	-0.067	0.151	0.772	0.480	0.790	1.275	1.865	1.851	-0.064	-0.035	-0.152
0.214	19.647	-0.101	0.029	-0.069	0.143	0.781	0.458	0.833	1.250	1.871	1.847	-0.068	-0.029	-0.150
0.214	19.650	-0.103	0.030	-0.072	0.131	0.779	0.496	0.862	1.216	1.867	1.840	-0.067	-0.025	-0.148
0.215	19.659	-0.104	0.026	-0.075	0.117	0.791	0.520	0.904	1.209	1.869	1.848	-0.071	-0.020	-0.145
0.215	19.653	-0.103	0.022	-0.075	0.101	0.820	0.559	0.887	1.222	1.874	1.850	-0.071	-0.016	-0.140
0.215	19.666	-0.106	0.022	-0.074	0.085	0.820	0.578	0.852	1.236	1.869	1.848	-0.075	-0.011	-0.134
0.215	19.659	-0.101	0.018	-0.073	0.069	0.839	0.546	0.804	1.261	1.867	1.847	-0.077	-0.007	-0.126
0.215	19.666	-0.102	0.015	-0.070	0.049	0.836	0.525	0.754	1.262	1.869	1.845	-0.080	-0.002	-0.120
0.216	19.647	-0.102	0.011	-0.067	0.033	0.838	0.485	0.716	1.239	1.869	1.845	-0.083	0.004	-0.113
0.216	19.641	-0.103	0.012	-0.066	0.019	0.825	0.490	0.702	1.195	1.867	1.851	-0.086	0.008	-0.104
0.216	19.653	-0.102	0.008	-0.061	0.008	0.832	0.488	0.712	1.162	1.871	1.845	-0.090	0.011	-0.095
0.216	19.644	-0.103	0.009	-0.056	0.003	0.841	0.510	0.724	1.161	1.868	1.851	-0.093	0.015	-0.084
0.216	19.638	-0.103	0.006	-0.048	-0.001	0.852	0.525	0.725	1.174	1.865	1.850	-0.098	0.018	-0.074
0.217	19.650	-0.101	0.005	-0.044	0.000	0.888	0.524	0.675	1.200	1.882	1.848	-0.101	0.021	-0.062
0.217	19.647	-0.101	0.004	-0.039	0.006	0.900	0.523	0.651	1.213	1.877	1.845	-0.106	0.024	-0.052
0.217	19.653	-0.098	-0.000	-0.035	0.013	0.926	0.504	0.607	1.187	1.873	1.853	-0.107	0.026	-0.042
0.217	19.662	-0.096	-0.002	-0.031	0.023	0.924	0.502	0.617	1.128	1.870	1.845	-0.111	0.027	-0.032
0.217	19.662	-0.095	-0.006	-0.030	0.036	0.923	0.500	0.641	1.069	1.873	1.849	-0.115	0.030	-0.022
0.218	19.650	-0.095	-0.009	-0.025	0.049	0.900	0.525	0.677	1.055	1.871	1.844	-0.119	0.031	-0.013
0.218	19.666	-0.093	-0.010	-0.025	0.063	0.900	0.544	0.703	1.058	1.869	1.851	-0.123	0.034	-0.004
0.218	19.635	-0.091	-0.014	-0.025	0.075	0.895	0.531	0.702	1.095	1.870	1.850	-0.124	0.032	0.003
0.218	19.650	-0.090	-0.012	-0.027	0.089	0.899	0.517	0.680	1.120	1.880	1.857	-0.129	0.033	0.012
0.218	19.647	-0.086	-0.011	-0.029	0.099	0.900	0.518	0.648	1.118	1.875	1.852	-0.129	0.032	0.018
0.219	19.659	-0.083	-0.013	-0.033	0.107	0.921	0.504	0.620	1.078	1.875	1.844	-0.130	0.032	0.023
0.219	19.650	-0.080	-0.011	-0.036	0.116	0.924	0.533	0.635	1.037	1.875	1.852	-0.130	0.029	0.027
0.219	19.693	-0.076	-0.015	-0.040	0.119	0.936	0.550	0.657	0.989	1.882	1.846	-0.130	0.029	0.031
0.219	19.653	-0.074	-0.016	-0.046	0.124	0.938	0.577	0.703	0.985	1.881	1.846	-0.130	0.028	0.033
0.219	19.669	-0.070	-0.020	-0.051	0.127	0.941	0.583	0.729	1.030	1.879	1.855	-0.130	0.027	0.035
0.220	19.659	-0.068	-0.024	-0.057	0.127	0.948	0.596	0.735	1.086	1.876	1.847	-0.129	0.025	0.035
0.220	19.666	-0.065	-0.030	-0.059	0.129	0.957	0.574	0.694	1.164	1.887	1.853	-0.128	0.022	0.036
0.220	19.669	-0.063	-0.035	-0.065	0.129	0.953	0.565	0.689	1.185	1.884	1.847	-0.127	0.021	0.034
0.220	19.656	-0.060	-0.042	-0.067	0.131	0.929	0.554	0.660	1.165	1.874	1.847	-0.127	0.018	0.032
0.220	19.659	-0.057	-0.046	-0.068	0.132	0.930	0.579	0.654	1.111	1.869	1.848	-0.123	0.015	0.029
0.221	19.669	-0.052	-0.052	-0.068	0.132	0.904	0.571	0.659	1.094	1.889	1.850	-0.121	0.010	0.025
0.221	19.672	-0.047	-0.056	-0.066	0.134	0.906	0.574	0.687	1.122	1.882	1.850	-0.118	0.006	0.022
0.221	19.672	-0.047	-0.063	-0.064	0.137	0.906	0.556	0.705	1.155	1.882	1.844	-0.115	0.002	0.019
0.221	19.672	-0.046	-0.064	-0.059	0.137	0.889	0.553	0.706	1.210	1.877	1.844	-0.111	-0.001	0.014
0.221	19.681	-0.043	-0.066	-0.054	0.141	0.904	0.554	0.715	1.244	1.883	1.846	-0.110	-0.005	0.007
0.222	19.672	-0.042	-0.070	-0.048	0.143	0.876	0.529	0.701	1.226	1.877	1.841	-0.105	-0.009	0.005
0.222	19.675	-0.038	-0.072	-0.043	0.145	0.862	0.529	0.680	1.164	1.875	1.842	-0.101	-0.013	-0.000
0.222	19.659	-0.035	-0.077	-0.036	0.147	0.845	0.509	0.678	1.110	1.877	1.844	-0.100	-0.018	-0.005
0.222	19.672	-0.033	-0.078	-0.031	0.148	0.799	0.485	0.671	1.074	1.875	1.846	-0.097	-0.021	-0.010
0.222	19.675	-0.028	-0.082	-0.024	0.149	0.777	0.483	0.680	1.071	1.878	1.846	-0.094	-0.027	-0.013
0.223	19.690	-0.025	-0.083	-0.019	0.150	0.754	0.474	0.691	1.128	1.874	1.850	-0.092	-0.030	-0.016
0.223	19.675	-0.026	-0.085	-0.015	0.148	0.753	0.462	0.723	1.159	1.875	1.852	-0.092	-0.034	-0.019
0.223	19.662	-0.022	-0.083	-0.014	0.150	0.756	0.459	0.724	1.196	1.875	1.850	-0.090	-0.036	-0.021
0.223	19.635	-0.020	-0.084	-0.012	0.150	0.771	0.451	0.681	1.190	1.872	1.841	-0.089	-0.042	-0.023
0.223	19.669	-0.024	-0.082	-0.012	0.151	0.757	0.431	0.638	1.162	1.878	1.847	-0.086	-0.045	-0.024
0.224	19.672	-0.025	-0.079	-0.012	0.151	0.735	0.427	0.596	1.119	1.881	1.849	-0.089	-0.048	-0.024
0.224	19.666	-0.027	-0.080	-0.014	0.152	0.689	0.400	0.584	1.119	1.874	1.845	-0.087	-0.050	-0.022
0.224	19.662	-0.031	-0.075	-0.017	0.153	0.681	0.396	0.571	1.141	1.869	1.845	-0.091	-0.051	-0.023
0.224	19.650	-0.030	-0.075	-0.019	0.153	0.653	0.380	0.598	1.166	1.873	1.846	-0.090	-0.054	-0.024
0.224	19.666	-0.027	-0.071	-0.025	0.153	0.641	0.371	0.614	1.201	1.877	1.845	-0.096	-0.053	-0.022
0.225	19.656	-0.026	-0.070	-0.030	0.153	0.639	0.353	0.631	1.197	1.877	1.843	-0.095	-0.052	-0.022
0.225	19.666	-0.021	-0.068	-0.035	0.153	0.652	0.335	0.629	1.154	1.871	1.849	-0.100	-0.052	-0.020
0.225	19.629	-0.022	-0.067	-0.045	0.153	0.644	0.319	0.599	1.119	1.876	1.853	-0.104	-0.049	-0.018
0.225	19.659	-0.022	-0.067	-0.051	0.151	0.629	0.282	0.566	1.098	1.871	1.847	-0.108	-0.047	-0.017
0.225	19.647	-0.025	-0.065	-0.060	0.150	0.634	0.264	0.502	1.099	1.876	1.844	-0.111	-0.045	-0.015
0.226	19.653	-0.029	-0.060	-0.068	0.149	0.609	0.256	0.473	1.144	1.881	1.845	-0.117	-0.039	-0.014
0.226	19.662	-0.033	-0.058	-0.076	0.145	0.592	0.254	0.452	1.165	1.877	1.845	-0.120	-0.038	-0.013
0.226	19.659	-0.040	-0.052	-0.085	0.142	0.583	0.254	0.464	1.157	1.883	1.843	-0.125	-0.033	-0.012
0.226	19.659	-0.040	-0.048	-0.094	0.138	0.580	0.246	0.481	1.160	1.878	1.848	-0.130	-0.029	-0.008
0.226	19.650	-0.041	-0.044	-0.100	0.132	0.570	0.267	0.535	1.138	1.873	1.851	-0.135	-0.024	-0.007
0.227	19.666	-0.041	-0.039	-0.109	0.129	0.560	0.256	0.532	1.143	1.872	1.849	-0.141	-0.019	-0.005
0.227	19.647	-0.039	-0.036	-0.113	0.121	0.554	0.237	0.536	1.165	1.876	1.849	-0.144	-0.015	-0.004
0.227	19.662	-0.043	-0.030	-0.121	0.115	0.558	0.219	0.496	1.179	1.872	1.855	-0.149	-0.009	-0.003
0.227	19.650	-0.044	-0.026	-0.127	0.107	0.574	0.218	0.488	1.203	1.872	1.854	-0.153	-0.004	-0.002
0.227	19.669	-0.050	-0.026	-0.133	0.100	0.583	0.204	0.505	1.221	1.873	1.849	-0.160	0.002	-0.001
0.228	19.650	-0.055	-0.022	-0.139	0.094	0.594	0.226	0.528	1.231	1.874	1.849	-0.160	0.005	-0.001
0.228	19.666	-0.057	-0.023	-0.142	0.086	0.589	0.243	0.570	1.222	1.868	1.849	-0.164	0.009	0.002
0.228	19.644	-0.060	-0.022	-0.148	0.081	0.587	0.249	0.549	1.221	1.870	1.842	-0.167	0.012	0.002
0.228	19.662	-0.059	-0.023	-0.148	0.073	0.574	0.242	0.529	1.233	1.868	1.849	-0.171	0.016	0.004
0.228	19.656	-0.057	-0.023	-0.153	0.065	0.567	0.237	0.476	1.204	1.869	1.852	-0.172	0.019	0.005
0.229	19.675	-0.056	-0.023	-0.155	0.059	0.547	0.245	0.427	1.205	1.871	1.844	-0.175	0.021	0.006
0.229	19.659	-0.054	-0.027	-0.157	0.049	0.533	0.262	0.397	1.226	1.868	1.846	-0.178	0.023	0.006
0.229	19.669	-0.058	-0.027	-0.160	0.041	0.541	0.300	0.375	1.241	1.867	1.846	-0.181	0.024	0.009
0.229	19.666	-0.065	-0.033	-0.164	0.028	0.530	0.317	0.383	1.257	1.869	1.839	-0.181	0.026	0.011
0.229	19.666	-0.070	-0.034	-0.169	0.018	0.548	0.340	0.397	1.263	1.866	1.848	-0.183	0.026	0.012
0.230	19.650	-0.075	-0.039	-0.172	0.004	0.544	0.351	0.433	1.284	1.870	1.851	-0.183	0.026	0.016
0.230	19.672	-0.076	-0.041	-0.177	-0.010	0.571	0.365	0.463	1.301	1.867	1.847	-0.184	0.025	0.014
0.230	19.659	-0.077	-0.045	-0.183	-0.022	0.586	0.379	0.463	1.289	1.871	1.844	-0.187	0.022	0.016
0.230	19.669	-0.074	-0.049	-0.191	-0.036	0.608	0.365	0.448	1.278	1.866	1.852	-0.185	0.021	0.017
0.230	19.666	-0.072	-0.049	-0.197	-0.050	0.631	0.395	0.436	1.232	1.867	1.853	-0.187	0.018	0.019
0.231	19.672	-0.073	-0.052	-0.204	-0.063	0.625	0.386	0.414	1.202	1.874	1.841	-0.186	0.016	0.022
0.231	19.653	-0.074	-0.049	-0.210	-0.076	0.608	0.419	0.412	1.176	1.870	1.843	-0.188	0.015	0.023
0.231	19.656	-0.076	-0.052	-0.213	-0.087	0.591	0.409	0.417	1.157	1.874	1.845	-0.188	0.012	0.026
0.231	19.641	-0.079	-0.052	-0.219	-0.097	0.590	0.392	0.393	1.142	1.877	1.846	-0.191	0.011	0.028
0.231	19.650	-0.083	-0.052	-0.221	-0.103	0.574	0.381	0.367	1.131	1.872	1.848	-0.189	0.006	0.027
0.232	19.620	-0.083	-0.051	-0.225	-0.107	0.593	0.363	0.340	1.106	1.867	1.850	-0.194	0.004	0.034
0.232	19.650	-0.085	-0.052	-0.229	-0.109	0.602	0.386	0.336	1.074	1.867	1.842	-0.191	0.003	0.038
0.232	19.650	-0.080	-0.053	-0.231	-0.109	0.628	0.398	0.331	1.075	1.878	1.845	-0.193	-0.001	0.040
0.232	19.626	-0.079	-0.052	-0.231	-0.104	0.639	0.441	0.342	1.094	1.871	1.848	-0.196	-0.002	0.041
0.232	19.666	-0.080	-0.053	-0.234	-0.098	0.641	0.424	0.373	1.149	1.877	1.847	-0.195	-0.004	0.044
0.233	19.620	-0.080	-0.052	-0.237	-0.091	0.616	0.413	0.361	1.201	1.872	1.848	-0.196	-0.007	0.047
0.233	19.641	-0.083	-0.053	-0.240	-0.079	0.573	0.407	0.361	1.245	1.876	1.843	-0.196	-0.008	0.049
0.233	19.632	-0.085	-0.053	-0.243	-0.066	0.547	0.375	0.373	1.251	1.874	1.849	-0.195	-0.011	0.051
0.233	19.659	-0.090	-0.054	-0.246	-0.053	0.528	0.380	0.397	1.237	1.873	1.840	-0.195	-0.013	0.052
0.233	19.635	-0.088	-0.054	-0.250	-0.039	0.554	0.355	0.416	1.216	1.875	1.847	-0.193	-0.014	0.053
0.234	19.653	-0.089	-0.055	-0.254	-0.025	0.577	0.388	0.424	1.192	1.867	1.849	-0.194	-0.015	0.054
0.234	19.620	-0.083	-0.054	-0.260	-0.010	0.631	0.400	0.387	1.195	1.867	1.850	-0.193	-0.016	0.052
0.234	19.653	-0.081	-0.057	-0.264	0.004	0.642	0.395	0.334	1.216	1.873	1.840	-0.192	-0.017	0.052
0.234	19.638	-0.077	-0.058	-0.268	0.018	0.644	0.395	0.271	1.243	1.874	1.841	-0.190	-0.017	0.051
0.234	19.653	-0.073	-0.059	-0.270	0.030	0.641	0.360	0.229	1.262	1.878	1.846	-0.189	-0.019	0.049
0.235	19.620	-0.075	-0.059	-0.271	0.041	0.619	0.319	0.218	1.282	1.872	1.850	-0.185	-0.020	0.047
0.235	19.632	-0.076	-0.057	-0.270	0.051	0.603	0.308	0.244	1.244	1.866	1.847	-0.184	-0.022	0.043
0.235	19.629	-0.077	-0.060	-0.267	0.062	0.615	0.268	0.279	1.228	1.877	1.845	-0.181	-0.025	0.040
0.235	19.635	-0.081	-0.058	-0.262	0.070	0.620	0.282	0.306	1.211	1.874	1.847	-0.178	-0.026	0.036
0.235	19.659	-0.081	-0.060	-0.255	0.079	0.637	0.282	0.314	1.216	1.877	1.847	-0.174	-0.028	0.032
0.236	19.635	-0.079	-0.060	-0.246	0.086	0.659	0.269	0.312	1.276	1.869	1.846	-0.170	-0.031	0.029
0.236	19.656	-0.078	-0.060	-0.236	0.094	0.672	0.240	0.312	1.300	1.877	1.843	-0.167	-0.032	0.023
0.236	19.635	-0.074	-0.061	-0.224	0.105	0.683	0.230	0.304	1.329	1.883	1.850	-0.162	-0.035	0.018
0.236	19.659	-0.070	-0.060	-0.210	0.111	0.670	0.205	0.307	1.337	1.875	1.844	-0.158	-0.036	0.014
0.236	19.629	-0.069	-0.062	-0.197	0.117	0.677	0.193	0.301	1.314	1.877	1.845	-0.153	-0.039	0.007
0.237	19.641	-0.070	-0.062	-0.181	0.124	0.681	0.181	0.294	1.306	1.871	1.843	-0.148	-0.042	0.001
0.237	19.632	-0.069	-0.063	-0.168	0.130	0.682	0.205	0.271	1.298	1.881	1.847	-0.144	-0.044	-0.005
0.237	19.644	-0.071	-0.067	-0.152	0.135	0.687	0.219	0.256	1.293	1.881	1.840	-0.138	-0.047	-0.011
0.237	19.647	-0.070	-0.066	-0.138	0.139	0.674	0.235	0.225	1.313	1.877	1.848	-0.137	-0.048	-0.016
0.237	19.650	-0.070	-0.070	-0.124	0.142	0.670	0.231	0.169	1.302	1.873	1.843	-0.131	-0.052	-0.023
0.238	19.653	-0.067	-0.071	-0.109	0.142	0.662	0.235	0.123	1.285	1.875	1.846	-0.129	-0.054	-0.029
0.238	19.672	-0.068	-0.074	-0.097	0.143	0.647	0.208	0.100	1.262	1.879	1.844	-0.125	-0.055	-0.035
0.238	19.644	-0.067	-0.076	-0.086	0.143	0.657	0.207	0.100	1.234	1.874	1.840	-0.125	-0.058	-0.040
0.238	19.647	-0.072	-0.080	-0.075	0.143	0.662	0.218	0.128	1.223	1.875	1.845	-0.123	-0.058	-0.047
0.238	19.647	-0.074	-0.083	-0.066	0.139	0.668	0.194	0.105	1.243	1.884	1.843	-0.122	-0.059	-0.053
0.239	19.644	-0.079	-0.086	-0.057	0.138	0.683	0.206	0.088	1.276	1.892	1.847	-0.121	-0.062	-0.058
0.239	19.662	-0.082	-0.091	-0.050	0.133	0.678	0.186	0.108	1.284	1.892	1.846	-0.120	-0.064	-0.065
0.239	19.656	-0.084	-0.093	-0.043	0.131	0.674	0.179	0.134	1.284	1.890	1.843	-0.122	-0.064	-0.070
0.239	19.656	-0.081	-0.094	-0.037	0.128	0.644	0.157	0.150	1.261	1.869	1.846	-0.121	-0.066	-0.077
0.239	19.659	-0.080	-0.096	-0.030	0.120	0.638	0.146	0.161	1.241	1.875	1.846	-0.122	-0.064	-0.082
0.240	19.641	-0.079	-0.095	-0.027	0.117	0.614	0.153	0.173	1.256	1.883	1.843	-0.122	-0.065	-0.086
0.240	19.669	-0.076	-0.096	-0.024	0.112	0.625	0.148	0.162	1.294	1.877	1.849	-0.122	-0.064	-0.090
0.240	19.672	-0.080	-0.095	-0.020	0.107	0.644	0.178	0.124	1.350	1.880	1.844	-0.123	-0.064	-0.093
0.240	19.693	-0.081	-0.093	-0.017	0.101	0.654	0.189	0.098	1.370	1.882	1.847	-0.122	-0.063	-0.095
0.240	19.687	-0.086	-0.091	-0.014	0.097	0.667	0.221	0.063	1.370	1.883	1.846	-0.126	-0.063	-0.098
0.241	19.672	-0.090	-0.089	-0.011	0.092	0.648	0.215	0.050	1.333	1.880	1.844	-0.128	-0.063	-0.098
0.241	19.711	-0.092	-0.087	-0.010	0.089	0.620	0.232	0.048	1.311	1.876	1.834	-0.128	-0.060	-0.099
0.241	19.675	-0.094	-0.084	-0.009	0.084	0.592	0.239	0.060	1.289	1.870	1.848	-0.128	-0.060	-0.100
0.241	19.687	-0.094	-0.080	-0.009	0.083	0.619	0.243	0.069	1.320	1.877	1.847	-0.129	-0.059	-0.098
0.241	19.666	-0.099	-0.078	-0.010	0.079	0.613	0.241	0.080	1.380	1.875	1.845	-0.128	-0.057	-0.096
0.242	19.705	-0.101	-0.073	-0.011	0.077	0.629	0.266	0.094	1.458	1.872	1.841	-0.129	-0.053	-0.096
0.242	19.672	-0.106	-0.069	-0.015	0.076	0.650	0.278	0.104	1.524	1.882	1.845	-0.128	-0.053	-0.093
0.242	19.699	-0.111	-0.066	-0.018	0.077	0.640	0.298	0.125	1.566	1.875	1.840	-0.127	-0.051	-0.091
0.242	19.696	-0.112	-0.064	-0.020	0.075	0.645	0.319	0.158	1.549	1.879	1.845	-0.127	-0.050	-0.088
0.242	19.699	-0.120	-0.062	-0.027	0.075	0.620	0.304	0.165	1.531	1.876	1.839	-0.125	-0.048	-0.085
0.243	19.678	-0.123	-0.060	-0.032	0.078	0.621	0.308	0.150	1.548	1.879	1.851	-0.123	-0.047	-0.081
0.243	19.711	-0.127	-0.060	-0.039	0.079	0.623	0.284	0.130	1.576	1.873	1.837	-0.120	-0.046	-0.077
0.243	19.678	-0.130	-0.059	-0.044	0.083	0.638	0.287	0.059	1.631	1.886	1.835	-0.117	-0.044	-0.073
0.243	19.690	-0.130	-0.059	-0.047	0.082	0.648	0.282	0.002	1.665	1.886	1.845	-0.115	-0.043	-0.070
0.243	19.681	-0.132	-0.060	-0.055	0.084	0.662	0.292	-0.033	1.641	1.887	1.849	-0.110	-0.041	-0.067
0.244	19.699	-0.136	-0.058	-0.060	0.083	0.664	0.322	-0.039	1.588	1.884	1.847	-0.109	-0.042	-0.063
0.244	19.717	-0.139	-0.060	-0.067	0.081	0.662	0.322	-0.031	1.543	1.884	1.842	-0.102	-0.042	-0.059
0.244	19.702	-0.142	-0.056	-0.074	0.077	0.662	0.353	-0.025	1.525	1.883	1.849	-0.100	-0.041	-0.057
0.244	19.727	-0.145	-0.059	-0.083	0.070	0.678	0.355	-0.044	1.551	1.877	1.845	-0.094	-0.040	-0.050
0.244	19.693	-0.146	-0.057	-0.089	0.061	0.724	0.376	-0.065	1.614	1.882	1.849	-0.091	-0.041	-0.051
0.245	19.727	-0.150	-0.059	-0.097	0.050	0.740	0.384	-0.069	1.676	1.879	1.841	-0.087	-0.041	-0.049
0.245	19.705	-0.152	-0.060	-0.103	0.037	0.764	0.419	-0.058	1.706	1.877	1.844	-0.084	-0.041	-0.047
0.245	19.724	-0.157	-0.061	-0.110	0.022	0.756	0.443	-0.019	1.702	1.887	1.844	-0.078	-0.043	-0.044
0.245	19.717	-0.159	-0.063	-0.118	0.007	0.749	0.431	0.020	1.684	1.878	1.840	-0.077	-0.043	-0.042
0.245	19.714	-0.163	-0.063	-0.125	-0.009	0.714	0.450	0.049	1.642	1.871	1.843	-0.072	-0.043	-0.041
0.246	19.711	-0.163	-0.066	-0.129	-0.025	0.703	0.412	0.047	1.636	1.878	1.840	-0.072	-0.041	-0.040
0.246	19.711	-0.166	-0.071	-0.138	-0.042	0.711	0.407	-0.001	1.621	1.876	1.848	-0.069	-0.041	-0.038
0.246	19.711	-0.166	-0.072	-0.146	-0.058	0.710	0.381	-0.053	1.638	1.876	1.849	-0.067	-0.039	-0.038
0.246	19.742	-0.165	-0.075	-0.155	-0.073	0.735	0.384	-0.117	1.619	1.869	1.847	-0.065	-0.041	-0.037
0.246	19.742	-0.165	-0.080	-0.164	-0.087	0.735	0.385	-0.143	1.597	1.886	1.840	-0.064	-0.040	-0.035
0.247	19.717	-0.163	-0.082	-0.173	-0.102	0.693	0.397	-0.133	1.534	1.879	1.844	-0.064	-0.040	-0.032
0.247	19.739	-0.166	-0.086	-0.185	-0.115	0.650	0.416	-0.092	1.460	1.873	1.841	-0.063	-0.038	-0.034
0.247	19.724	-0.166	-0.090	-0.196	-0.124	0.637	0.400	-0.054	1.415	1.881	1.841	-0.063	-0.037	-0.031
0.247	19.724	-0.170	-0.094	-0.210	-0.132	0.627	0.432	-0.058	1.411	1.877	1.848	-0.062	-0.036	-0.031
0.247	19.727	-0.171	-0.098	-0.220	-0.135	0.653	0.383	-0.094	1.444	1.879	1.847	-0.063	-0.035	-0.029
0.248	19.727	-0.174	-0.098	-0.234	-0.140	0.671	0.372	-0.114	1.477	1.882	1.845	-0.064	-0.033	-0.028
0.248	19.733	-0.173	-0.100	-0.247	-0.141	0.672	0.346	-0.073	1.515	1.873	1.843	-0.066	-0.029	-0.027
0.248	19.711	-0.171	-0.101	-0.258	-0.139	0.651	0.372	-0.028	1.555	1.870	1.843	-0.065	-0.029	-0.027
0.248	19.730	-0.168	-0.101	-0.270	-0.136	0.628	0.385	0.036	1.544	1.876	1.840	-0.065	-0.027	-0.023
0.248	19.711	-0.164	-0.102	-0.278	-0.129	0.626	0.408	0.087	1.513	1.876	1.839	-0.066	-0.025	-0.026
0.249	19.727	-0.164	-0.102	-0.285	-0.122	0.635	0.429	0.100	1.492	1.864	1.836	-0.066	-0.025	-0.024
