Comment:	20231003 sppedbump
Time	Vehicle Speed	FL Sprung acceleration	FR Sprung acceleration	RL Sprung acceleration	RR Sprung acceleration	FL Unsprung acceleration	FR Unsprung acceleration	RL Unsprung acceleration	RR Unsprung acceleration	Bellow pressure RL	Bellow pressure RR	Acceleration X	Acceleration Y	Acceleration Z
s	km/h	gn	gn	gn	gn	gn	gn	gn	gn	bar	bar	g	g	g
0.000	25.815	0.011	0.062	-0.267	-0.124	1.379	1.200	0.085	1.693	1.854	1.882	0.046	-0.091	-0.004
0.000	25.824	0.012	0.064	-0.268	-0.128	1.348	1.195	0.097	1.723	1.844	1.878	0.051	-0.085	-0.006
0.000	25.809	0.010	0.067	-0.268	-0.130	1.333	1.243	0.122	1.704	1.853	1.883	0.057	-0.082	-0.003
0.001	25.800	0.011	0.067	-0.265	-0.128	1.289	1.252	0.163	1.656	1.857	1.877	0.062	-0.077	-0.004
0.001	25.824	0.009	0.071	-0.258	-0.124	1.281	1.256	0.199	1.626	1.856	1.879	0.067	-0.070	-0.001
0.001	25.815	0.010	0.072	-0.247	-0.118	1.246	1.258	0.184	1.619	1.847	1.880	0.073	-0.064	0.004
0.001	25.827	0.011	0.073	-0.232	-0.108	1.224	1.251	0.118	1.673	1.838	1.876	0.077	-0.059	0.004
0.001	25.803	0.013	0.074	-0.215	-0.098	1.186	1.249	0.016	1.735	1.845	1.871	0.080	-0.050	0.004
0.002	25.797	0.015	0.075	-0.198	-0.086	1.150	1.252	-0.101	1.781	1.851	1.872	0.088	-0.047	0.007
0.002	25.793	0.016	0.075	-0.180	-0.072	1.114	1.254	-0.168	1.790	1.857	1.881	0.091	-0.044	0.010
0.002	25.793	0.018	0.077	-0.165	-0.059	1.140	1.247	-0.178	1.816	1.846	1.869	0.093	-0.035	0.013
0.002	25.797	0.015	0.078	-0.150	-0.043	1.179	1.251	-0.151	1.853	1.853	1.875	0.095	-0.031	0.013
0.002	25.806	0.017	0.078	-0.137	-0.030	1.234	1.248	-0.076	1.863	1.848	1.883	0.098	-0.029	0.017
0.003	25.790	0.017	0.079	-0.128	-0.017	1.262	1.219	-0.032	1.915	1.856	1.877	0.098	-0.025	0.019
0.003	25.797	0.017	0.078	-0.116	-0.003	1.257	1.183	-0.039	1.932	1.857	1.885	0.096	-0.024	0.022
0.003	25.778	0.020	0.078	-0.113	0.009	1.233	1.136	-0.068	1.959	1.864	1.879	0.097	-0.021	0.025
0.003	25.766	0.022	0.078	-0.107	0.021	1.185	1.100	-0.114	1.997	1.861	1.876	0.097	-0.018	0.026
0.003	25.769	0.027	0.077	-0.105	0.033	1.132	1.062	-0.138	2.010	1.865	1.882	0.094	-0.019	0.028
0.004	25.781	0.029	0.075	-0.105	0.046	1.124	1.050	-0.159	2.010	1.866	1.876	0.094	-0.018	0.030
0.004	25.760	0.032	0.072	-0.109	0.058	1.134	1.026	-0.149	2.000	1.863	1.884	0.092	-0.018	0.033
0.004	25.775	0.032	0.069	-0.112	0.071	1.183	1.003	-0.128	2.021	1.854	1.871	0.091	-0.018	0.035
0.004	25.748	0.033	0.067	-0.118	0.083	1.226	0.955	-0.130	2.016	1.858	1.876	0.088	-0.017	0.037
0.004	25.763	0.033	0.063	-0.125	0.093	1.245	0.924	-0.132	1.986	1.854	1.869	0.088	-0.017	0.038
0.005	25.775	0.035	0.064	-0.129	0.107	1.208	0.875	-0.134	1.984	1.846	1.871	0.090	-0.018	0.041
0.005	25.760	0.035	0.065	-0.134	0.114	1.160	0.862	-0.162	1.978	1.854	1.870	0.087	-0.018	0.040
0.005	25.766	0.037	0.063	-0.140	0.126	1.072	0.873	-0.202	2.010	1.857	1.871	0.086	-0.016	0.041
0.005	25.778	0.040	0.061	-0.144	0.134	1.025	0.857	-0.228	2.068	1.856	1.870	0.086	-0.017	0.044
0.005	25.748	0.042	0.064	-0.146	0.141	0.996	0.850	-0.204	2.122	1.852	1.871	0.087	-0.014	0.042
0.006	25.748	0.043	0.067	-0.148	0.148	1.027	0.845	-0.167	2.170	1.858	1.879	0.086	-0.014	0.044
0.006	25.751	0.044	0.067	-0.147	0.156	1.050	0.778	-0.120	2.181	1.857	1.871	0.087	-0.012	0.044
0.006	25.751	0.043	0.070	-0.146	0.162	1.108	0.751	-0.109	2.182	1.857	1.869	0.087	-0.010	0.041
0.006	25.739	0.042	0.072	-0.144	0.168	1.081	0.746	-0.109	2.192	1.855	1.876	0.086	-0.007	0.040
0.006	25.729	0.041	0.074	-0.140	0.174	1.059	0.736	-0.151	2.209	1.850	1.873	0.087	-0.005	0.041
0.007	25.751	0.041	0.075	-0.135	0.175	1.025	0.739	-0.199	2.218	1.853	1.870	0.087	-0.002	0.040
0.007	25.748	0.041	0.076	-0.128	0.180	0.983	0.750	-0.250	2.268	1.847	1.868	0.085	0.004	0.039
0.007	25.717	0.041	0.079	-0.118	0.179	0.980	0.744	-0.299	2.277	1.852	1.872	0.083	0.005	0.038
0.007	25.748	0.041	0.081	-0.108	0.181	1.002	0.719	-0.282	2.270	1.859	1.864	0.080	0.010	0.036
0.007	25.708	0.040	0.085	-0.097	0.182	1.029	0.698	-0.257	2.202	1.855	1.880	0.078	0.013	0.036
0.008	25.720	0.040	0.087	-0.086	0.181	1.051	0.656	-0.267	2.124	1.854	1.861	0.074	0.017	0.039
0.008	25.714	0.038	0.093	-0.073	0.185	1.067	0.618	-0.298	2.077	1.851	1.873	0.073	0.018	0.036
0.008	25.720	0.035	0.098	-0.065	0.182	1.055	0.604	-0.344	2.098	1.852	1.866	0.069	0.022	0.035
0.008	25.708	0.033	0.102	-0.055	0.186	1.030	0.598	-0.365	2.129	1.851	1.873	0.066	0.022	0.036
0.008	25.714	0.031	0.105	-0.051	0.187	0.998	0.617	-0.386	2.191	1.847	1.862	0.059	0.026	0.034
0.009	25.702	0.030	0.111	-0.046	0.191	0.989	0.645	-0.392	2.204	1.849	1.869	0.052	0.027	0.034
0.009	25.717	0.027	0.113	-0.047	0.197	0.981	0.639	-0.393	2.237	1.852	1.866	0.050	0.027	0.035
0.009	25.732	0.029	0.117	-0.052	0.203	0.990	0.637	-0.376	2.253	1.851	1.871	0.044	0.029	0.035
0.009	25.705	0.026	0.120	-0.058	0.212	0.966	0.648	-0.403	2.252	1.840	1.870	0.037	0.033	0.036
0.009	25.714	0.026	0.121	-0.069	0.221	0.932	0.654	-0.391	2.254	1.854	1.874	0.034	0.033	0.038
0.010	25.717	0.025	0.125	-0.083	0.231	0.914	0.681	-0.424	2.256	1.848	1.869	0.026	0.033	0.039
0.010	25.708	0.024	0.124	-0.099	0.243	0.904	0.695	-0.422	2.262	1.849	1.869	0.021	0.034	0.039
0.010	25.702	0.022	0.128	-0.117	0.255	0.892	0.717	-0.452	2.269	1.849	1.870	0.017	0.033	0.041
0.010	25.714	0.022	0.129	-0.137	0.266	0.909	0.730	-0.468	2.283	1.852	1.868	0.012	0.031	0.043
0.010	25.705	0.020	0.132	-0.157	0.277	0.910	0.753	-0.521	2.324	1.854	1.869	0.009	0.032	0.044
0.011	25.720	0.019	0.137	-0.179	0.288	0.893	0.766	-0.530	2.376	1.849	1.877	0.005	0.030	0.043
0.011	25.699	0.021	0.138	-0.202	0.295	0.869	0.764	-0.514	2.362	1.849	1.869	0.001	0.028	0.050
0.011	25.690	0.021	0.139	-0.222	0.301	0.828	0.778	-0.516	2.336	1.853	1.866	-0.002	0.027	0.048
0.011	25.714	0.020	0.139	-0.241	0.304	0.824	0.789	-0.509	2.288	1.852	1.869	-0.007	0.025	0.049
0.011	25.717	0.021	0.140	-0.259	0.303	0.823	0.799	-0.526	2.220	1.848	1.873	-0.008	0.023	0.053
0.012	25.699	0.021	0.140	-0.272	0.302	0.850	0.795	-0.533	2.235	1.846	1.866	-0.013	0.021	0.053
0.012	25.705	0.021	0.141	-0.282	0.295	0.848	0.795	-0.495	2.257	1.846	1.864	-0.015	0.018	0.053
0.012	25.699	0.022	0.141	-0.290	0.285	0.845	0.783	-0.495	2.278	1.849	1.879	-0.017	0.014	0.054
0.012	25.723	0.023	0.142	-0.293	0.274	0.821	0.756	-0.474	2.331	1.845	1.882	-0.020	0.014	0.054
0.012	25.693	0.024	0.145	-0.292	0.258	0.771	0.746	-0.419	2.337	1.846	1.871	-0.022	0.009	0.055
0.013	25.693	0.027	0.146	-0.287	0.243	0.752	0.730	-0.346	2.343	1.841	1.862	-0.026	0.005	0.053
0.013	25.693	0.027	0.147	-0.278	0.222	0.722	0.712	-0.257	2.330	1.838	1.866	-0.030	0.005	0.055
0.013	25.696	0.030	0.151	-0.269	0.198	0.708	0.705	-0.187	2.288	1.838	1.875	-0.033	-0.001	0.055
0.013	25.696	0.031	0.150	-0.256	0.177	0.701	0.665	-0.142	2.264	1.838	1.876	-0.034	0.001	0.053
0.013	25.687	0.032	0.151	-0.242	0.151	0.698	0.670	-0.167	2.265	1.840	1.872	-0.037	-0.002	0.051
0.014	25.674	0.034	0.152	-0.224	0.128	0.675	0.662	-0.208	2.288	1.848	1.869	-0.037	-0.001	0.051
0.014	25.671	0.035	0.150	-0.205	0.105	0.684	0.651	-0.276	2.317	1.845	1.867	-0.043	-0.006	0.050
0.014	25.668	0.037	0.150	-0.187	0.083	0.655	0.665	-0.294	2.338	1.835	1.860	-0.043	-0.009	0.048
0.014	25.671	0.039	0.146	-0.167	0.064	0.645	0.662	-0.308	2.292	1.842	1.878	-0.048	-0.007	0.049
0.014	25.671	0.040	0.145	-0.152	0.046	0.644	0.665	-0.270	2.209	1.835	1.877	-0.052	-0.005	0.047
0.015	25.677	0.041	0.143	-0.133	0.031	0.629	0.621	-0.264	2.125	1.837	1.877	-0.051	-0.005	0.045
0.015	25.665	0.041	0.141	-0.121	0.018	0.571	0.604	-0.225	2.114	1.836	1.867	-0.052	-0.005	0.046
0.015	25.674	0.044	0.140	-0.106	0.005	0.540	0.556	-0.221	2.209	1.831	1.869	-0.051	-0.003	0.045
0.015	25.674	0.045	0.137	-0.097	-0.002	0.510	0.526	-0.253	2.322	1.848	1.869	-0.055	-0.004	0.046
0.015	25.684	0.046	0.134	-0.090	-0.007	0.499	0.501	-0.304	2.440	1.843	1.864	-0.055	0.001	0.047
0.016	25.671	0.050	0.134	-0.086	-0.010	0.536	0.504	-0.320	2.417	1.836	1.867	-0.055	0.004	0.044
0.016	25.690	0.053	0.131	-0.083	-0.009	0.586	0.490	-0.307	2.349	1.842	1.865	-0.057	0.004	0.045
0.016	25.696	0.058	0.128	-0.086	-0.004	0.653	0.407	-0.326	2.264	1.834	1.873	-0.055	0.006	0.048
0.016	25.674	0.059	0.128	-0.093	-0.000	0.674	0.389	-0.317	2.217	1.838	1.865	-0.054	0.007	0.046
0.016	25.671	0.065	0.123	-0.101	0.010	0.642	0.316	-0.299	2.233	1.842	1.868	-0.056	0.010	0.050
0.017	25.684	0.065	0.121	-0.112	0.018	0.598	0.284	-0.328	2.313	1.840	1.871	-0.053	0.010	0.049
0.017	25.677	0.069	0.119	-0.125	0.026	0.551	0.260	-0.361	2.388	1.840	1.875	-0.055	0.009	0.047
0.017	25.684	0.069	0.118	-0.140	0.038	0.530	0.244	-0.334	2.431	1.838	1.864	-0.056	0.010	0.046
0.017	25.665	0.071	0.116	-0.158	0.047	0.525	0.237	-0.328	2.400	1.836	1.868	-0.053	0.009	0.048
0.017	25.674	0.074	0.116	-0.175	0.056	0.557	0.206	-0.274	2.363	1.838	1.870	-0.051	0.007	0.046
0.018	25.677	0.077	0.119	-0.192	0.064	0.590	0.148	-0.234	2.302	1.835	1.869	-0.053	0.007	0.045
0.018	25.665	0.077	0.120	-0.209	0.067	0.607	0.094	-0.189	2.264	1.836	1.873	-0.050	0.002	0.046
0.018	25.690	0.079	0.123	-0.225	0.075	0.601	0.045	-0.135	2.235	1.842	1.874	-0.051	-0.002	0.042
0.018	25.671	0.079	0.125	-0.240	0.074	0.560	0.024	-0.116	2.244	1.840	1.872	-0.051	-0.001	0.044
0.018	25.662	0.081	0.126	-0.252	0.079	0.520	0.010	-0.112	2.256	1.844	1.878	-0.049	-0.007	0.042
0.019	25.650	0.081	0.126	-0.261	0.079	0.507	0.025	-0.108	2.278	1.846	1.880	-0.048	-0.011	0.043
0.019	25.635	0.083	0.126	-0.270	0.080	0.496	0.014	-0.135	2.279	1.846	1.879	-0.049	-0.013	0.041
0.019	25.632	0.085	0.125	-0.277	0.079	0.522	0.025	-0.169	2.276	1.841	1.877	-0.047	-0.019	0.041
0.019	25.632	0.088	0.124	-0.278	0.079	0.540	0.003	-0.216	2.256	1.828	1.872	-0.045	-0.021	0.041
0.019	25.598	0.089	0.122	-0.279	0.079	0.548	-0.037	-0.255	2.245	1.839	1.876	-0.045	-0.019	0.040
0.020	25.629	0.091	0.123	-0.279	0.078	0.520	-0.073	-0.174	2.209	1.837	1.874	-0.042	-0.028	0.039
0.020	25.610	0.093	0.123	-0.274	0.079	0.478	-0.095	-0.101	2.195	1.835	1.866	-0.039	-0.031	0.041
0.020	25.580	0.093	0.125	-0.269	0.081	0.462	-0.101	0.002	2.173	1.835	1.878	-0.038	-0.034	0.039
0.020	25.601	0.093	0.124	-0.261	0.084	0.464	-0.094	0.051	2.174	1.839	1.868	-0.035	-0.037	0.040
0.020	25.577	0.093	0.127	-0.252	0.089	0.507	-0.122	0.027	2.158	1.834	1.874	-0.036	-0.040	0.041
0.021	25.574	0.093	0.128	-0.242	0.096	0.559	-0.149	0.044	2.133	1.834	1.880	-0.030	-0.040	0.038
0.021	25.577	0.094	0.130	-0.230	0.106	0.620	-0.172	0.085	2.084	1.838	1.874	-0.027	-0.042	0.042
0.021	25.568	0.094	0.130	-0.219	0.118	0.602	-0.190	0.180	2.072	1.840	1.882	-0.025	-0.043	0.041
0.021	25.565	0.095	0.129	-0.205	0.132	0.563	-0.199	0.267	2.083	1.831	1.880	-0.023	-0.045	0.039
0.021	25.549	0.095	0.128	-0.192	0.146	0.505	-0.184	0.340	2.064	1.839	1.889	-0.020	-0.045	0.039
0.022	25.552	0.098	0.126	-0.176	0.161	0.484	-0.184	0.392	2.063	1.838	1.889	-0.020	-0.042	0.039
0.022	25.571	0.096	0.125	-0.163	0.175	0.473	-0.165	0.377	2.023	1.838	1.878	-0.017	-0.045	0.039
0.022	25.540	0.096	0.124	-0.146	0.190	0.492	-0.146	0.310	1.953	1.834	1.874	-0.012	-0.045	0.040
0.022	25.546	0.094	0.124	-0.130	0.204	0.534	-0.146	0.230	1.896	1.841	1.876	-0.011	-0.044	0.038
0.022	25.540	0.091	0.126	-0.113	0.214	0.546	-0.168	0.207	1.834	1.835	1.873	-0.010	-0.041	0.038
0.023	25.516	0.089	0.127	-0.094	0.225	0.544	-0.178	0.230	1.792	1.830	1.869	-0.008	-0.042	0.037
0.023	25.531	0.089	0.128	-0.077	0.233	0.514	-0.187	0.296	1.782	1.832	1.877	-0.006	-0.038	0.035
0.023	25.528	0.088	0.129	-0.058	0.235	0.461	-0.179	0.411	1.799	1.837	1.882	-0.005	-0.038	0.038
0.023	25.531	0.087	0.131	-0.038	0.239	0.408	-0.148	0.489	1.835	1.836	1.884	-0.004	-0.036	0.036
0.023	25.534	0.087	0.132	-0.021	0.236	0.380	-0.126	0.498	1.870	1.828	1.884	-0.003	-0.033	0.035
0.024	25.528	0.083	0.133	-0.002	0.229	0.372	-0.117	0.478	1.924	1.832	1.886	-0.001	-0.032	0.036
0.024	25.519	0.081	0.133	0.015	0.222	0.390	-0.134	0.421	1.960	1.840	1.880	-0.001	-0.032	0.033
0.024	25.516	0.077	0.133	0.032	0.209	0.412	-0.134	0.421	1.986	1.847	1.884	-0.001	-0.025	0.033
0.024	25.507	0.074	0.134	0.048	0.195	0.417	-0.144	0.451	1.992	1.837	1.895	-0.001	-0.023	0.030
0.024	25.507	0.072	0.135	0.065	0.177	0.412	-0.114	0.522	1.949	1.833	1.890	0.001	-0.022	0.030
0.025	25.504	0.071	0.137	0.080	0.156	0.366	-0.120	0.621	1.929	1.842	1.888	-0.001	-0.017	0.029
0.025	25.482	0.070	0.141	0.098	0.134	0.324	-0.122	0.714	1.852	1.832	1.885	-0.004	-0.014	0.027
0.025	25.497	0.069	0.143	0.107	0.110	0.283	-0.133	0.739	1.806	1.840	1.880	-0.002	-0.009	0.026
0.025	25.500	0.069	0.148	0.121	0.085	0.275	-0.136	0.684	1.773	1.839	1.879	-0.003	-0.002	0.023
0.025	25.467	0.072	0.153	0.126	0.059	0.290	-0.137	0.598	1.768	1.839	1.885	-0.004	-0.001	0.023
0.026	25.482	0.073	0.156	0.131	0.033	0.300	-0.177	0.538	1.789	1.835	1.877	-0.004	0.005	0.021
0.026	25.470	0.068	0.160	0.134	0.006	0.295	-0.182	0.549	1.786	1.833	1.887	-0.008	0.009	0.018
0.026	25.452	0.067	0.162	0.132	-0.019	0.314	-0.187	0.602	1.761	1.841	1.889	-0.007	0.014	0.018
0.026	25.504	0.062	0.166	0.128	-0.044	0.281	-0.217	0.659	1.730	1.841	1.897	-0.003	0.020	0.012
0.026	25.458	0.060	0.169	0.122	-0.069	0.276	-0.184	0.730	1.706	1.838	1.892	-0.007	0.025	0.009
0.027	25.449	0.058	0.169	0.114	-0.090	0.269	-0.215	0.736	1.701	1.829	1.895	-0.006	0.030	0.007
0.027	25.485	0.055	0.170	0.101	-0.112	0.271	-0.207	0.719	1.711	1.834	1.891	-0.006	0.035	0.005
0.027	25.452	0.058	0.172	0.089	-0.130	0.282	-0.234	0.682	1.713	1.832	1.902	-0.007	0.039	0.005
0.027	25.464	0.054	0.171	0.073	-0.145	0.269	-0.245	0.654	1.719	1.841	1.893	-0.007	0.044	0.001
0.027	25.473	0.055	0.172	0.058	-0.155	0.243	-0.267	0.688	1.684	1.832	1.899	-0.007	0.048	-0.001
0.028	25.443	0.055	0.171	0.043	-0.164	0.208	-0.283	0.769	1.616	1.835	1.900	-0.005	0.052	-0.001
0.028	25.443	0.055	0.171	0.025	-0.168	0.196	-0.298	0.862	1.568	1.835	1.901	-0.005	0.056	-0.003
0.028	25.458	0.057	0.171	0.007	-0.167	0.186	-0.296	0.949	1.536	1.836	1.888	-0.004	0.061	-0.001
0.028	25.433	0.059	0.169	-0.008	-0.161	0.184	-0.298	0.957	1.514	1.827	1.883	-0.003	0.061	-0.003
0.028	25.458	0.060	0.168	-0.027	-0.151	0.211	-0.282	0.937	1.507	1.828	1.881	-0.002	0.064	-0.000
0.029	25.433	0.062	0.167	-0.043	-0.138	0.221	-0.284	0.869	1.471	1.833	1.889	0.002	0.062	0.001
0.029	25.439	0.064	0.165	-0.059	-0.119	0.207	-0.289	0.795	1.416	1.826	1.889	0.003	0.063	-0.001
0.029	25.446	0.066	0.164	-0.073	-0.095	0.166	-0.306	0.763	1.337	1.832	1.894	0.004	0.063	0.006
0.029	25.439	0.068	0.163	-0.089	-0.074	0.129	-0.317	0.776	1.252	1.831	1.898	0.008	0.058	0.007
0.029	25.436	0.068	0.161	-0.101	-0.049	0.089	-0.324	0.821	1.205	1.828	1.902	0.007	0.059	0.010
0.030	25.436	0.068	0.160	-0.112	-0.021	0.097	-0.320	0.870	1.169	1.834	1.908	0.011	0.054	0.015
0.030	25.439	0.068	0.159	-0.123	0.009	0.119	-0.313	0.890	1.177	1.834	1.902	0.014	0.048	0.016
0.030	25.436	0.070	0.157	-0.134	0.037	0.179	-0.317	0.895	1.191	1.835	1.900	0.012	0.041	0.020
0.030	25.446	0.069	0.156	-0.142	0.062	0.204	-0.339	0.880	1.199	1.835	1.905	0.016	0.037	0.023
0.030	25.455	0.072	0.154	-0.151	0.087	0.225	-0.366	0.836	1.188	1.834	1.900	0.014	0.031	0.027
0.031	25.455	0.074	0.153	-0.158	0.109	0.210	-0.363	0.850	1.117	1.824	1.901	0.014	0.026	0.029
0.031	25.455	0.076	0.151	-0.165	0.127	0.194	-0.374	0.887	1.093	1.823	1.898	0.018	0.016	0.033
0.031	25.464	0.076	0.151	-0.170	0.139	0.183	-0.383	1.008	1.086	1.835	1.891	0.018	0.007	0.037
0.031	25.455	0.078	0.151	-0.175	0.152	0.172	-0.372	1.057	1.086	1.829	1.890	0.017	0.000	0.039
0.031	25.449	0.076	0.151	-0.179	0.159	0.192	-0.381	1.125	1.112	1.834	1.892	0.019	-0.007	0.043
0.032	25.458	0.076	0.152	-0.183	0.161	0.222	-0.386	1.134	1.129	1.833	1.896	0.019	-0.016	0.047
0.032	25.443	0.075	0.152	-0.186	0.159	0.259	-0.393	1.122	1.136	1.834	1.895	0.024	-0.022	0.048
0.032	25.479	0.074	0.154	-0.187	0.156	0.275	-0.419	1.111	1.152	1.824	1.897	0.024	-0.028	0.051
0.032	25.467	0.073	0.154	-0.189	0.148	0.270	-0.425	1.102	1.137	1.825	1.901	0.025	-0.034	0.052
0.032	25.470	0.076	0.155	-0.190	0.139	0.264	-0.408	1.130	1.129	1.823	1.911	0.025	-0.040	0.055
0.033	25.488	0.073	0.156	-0.189	0.126	0.229	-0.388	1.138	1.135	1.823	1.909	0.030	-0.045	0.058
0.033	25.476	0.074	0.154	-0.186	0.115	0.242	-0.355	1.178	1.152	1.828	1.912	0.033	-0.050	0.059
0.033	25.461	0.072	0.153	-0.183	0.099	0.243	-0.344	1.233	1.161	1.829	1.907	0.036	-0.054	0.058
0.033	25.482	0.069	0.153	-0.177	0.086	0.274	-0.340	1.239	1.173	1.835	1.910	0.039	-0.056	0.058
0.033	25.476	0.068	0.152	-0.171	0.069	0.280	-0.355	1.179	1.119	1.822	1.903	0.045	-0.057	0.062
0.034	25.470	0.065	0.152	-0.160	0.055	0.266	-0.380	1.111	1.054	1.822	1.907	0.045	-0.059	0.061
0.034	25.461	0.063	0.149	-0.150	0.041	0.244	-0.384	1.074	0.963	1.829	1.906	0.047	-0.059	0.059
0.034	25.455	0.063	0.148	-0.135	0.027	0.230	-0.378	1.086	0.908	1.824	1.898	0.052	-0.060	0.061
0.034	25.455	0.062	0.145	-0.122	0.018	0.234	-0.349	1.127	0.926	1.818	1.896	0.055	-0.060	0.058
0.034	25.464	0.063	0.143	-0.108	0.004	0.267	-0.339	1.177	0.994	1.822	1.903	0.057	-0.058	0.060
0.035	25.473	0.061	0.138	-0.089	-0.001	0.302	-0.342	1.233	1.082	1.821	1.907	0.061	-0.057	0.059
0.035	25.449	0.061	0.134	-0.073	-0.006	0.318	-0.376	1.248	1.147	1.826	1.909	0.064	-0.058	0.056
0.035	25.461	0.058	0.128	-0.055	-0.010	0.312	-0.390	1.196	1.117	1.829	1.906	0.065	-0.057	0.055
0.035	25.464	0.053	0.124	-0.037	-0.012	0.283	-0.414	1.118	1.076	1.828	1.912	0.069	-0.057	0.052
0.035	25.467	0.048	0.120	-0.018	-0.011	0.252	-0.411	1.037	0.995	1.827	1.911	0.075	-0.057	0.049
0.036	25.476	0.049	0.114	-0.003	-0.011	0.252	-0.379	0.992	0.935	1.828	1.915	0.072	-0.056	0.049
0.036	25.449	0.045	0.110	0.014	-0.006	0.225	-0.344	1.030	0.914	1.829	1.907	0.076	-0.055	0.044
0.036	25.464	0.045	0.108	0.029	-0.001	0.239	-0.320	1.090	0.896	1.833	1.904	0.077	-0.056	0.042
0.036	25.488	0.044	0.104	0.043	0.009	0.274	-0.322	1.172	0.898	1.821	1.912	0.077	-0.057	0.041
0.036	25.473	0.043	0.101	0.052	0.019	0.258	-0.347	1.186	0.893	1.826	1.910	0.079	-0.058	0.032
0.037	25.452	0.042	0.104	0.064	0.033	0.233	-0.364	1.191	0.935	1.834	1.907	0.077	-0.060	0.035
0.037	25.458	0.038	0.103	0.070	0.048	0.199	-0.383	1.112	0.955	1.832	1.907	0.082	-0.059	0.031
0.037	25.461	0.036	0.102	0.078	0.064	0.181	-0.329	1.078	0.985	1.828	1.907	0.084	-0.060	0.033
0.037	25.443	0.033	0.104	0.083	0.080	0.162	-0.313	1.082	1.014	1.831	1.911	0.082	-0.060	0.026
0.037	25.464	0.029	0.104	0.086	0.102	0.166	-0.269	1.077	1.018	1.826	1.911	0.084	-0.060	0.023
0.038	25.467	0.027	0.103	0.090	0.120	0.175	-0.276	1.128	1.021	1.827	1.910	0.086	-0.060	0.022
0.038	25.449	0.028	0.103	0.089	0.143	0.198	-0.312	1.177	1.019	1.825	1.917	0.087	-0.059	0.018
0.038	25.452	0.025	0.102	0.091	0.163	0.205	-0.327	1.173	0.979	1.826	1.922	0.090	-0.058	0.017
0.038	25.464	0.023	0.100	0.087	0.183	0.233	-0.341	1.149	0.965	1.830	1.922	0.092	-0.057	0.014
0.038	25.458	0.022	0.098	0.084	0.200	0.278	-0.354	1.074	0.924	1.833	1.916	0.095	-0.053	0.011
0.039	25.455	0.019	0.095	0.080	0.216	0.300	-0.355	1.010	0.874	1.828	1.915	0.097	-0.051	0.013
0.039	25.473	0.020	0.093	0.075	0.227	0.334	-0.317	0.987	0.841	1.830	1.918	0.099	-0.049	0.007
0.039	25.461	0.016	0.088	0.074	0.235	0.353	-0.304	1.013	0.815	1.833	1.930	0.098	-0.044	0.004
0.039	25.467	0.014	0.085	0.071	0.239	0.375	-0.314	1.090	0.779	1.828	1.920	0.101	-0.041	0.008
0.039	25.476	0.013	0.082	0.070	0.239	0.398	-0.340	1.110	0.807	1.828	1.918	0.102	-0.037	0.006
0.040	25.446	0.012	0.078	0.068	0.238	0.427	-0.368	1.098	0.841	1.840	1.918	0.101	-0.031	0.006
0.040	25.479	0.010	0.076	0.071	0.231	0.470	-0.402	1.106	0.888	1.834	1.909	0.102	-0.030	0.005
0.040	25.446	0.010	0.075	0.075	0.222	0.528	-0.398	1.096	0.907	1.824	1.918	0.102	-0.027	0.005
0.040	25.458	0.011	0.073	0.079	0.209	0.586	-0.375	1.055	0.907	1.835	1.918	0.101	-0.020	0.007
0.040	25.467	0.010	0.072	0.087	0.199	0.610	-0.312	1.053	0.897	1.823	1.914	0.099	-0.017	0.008
0.041	25.464	0.011	0.069	0.096	0.187	0.590	-0.276	1.068	0.895	1.842	1.918	0.100	-0.015	0.009
0.041	25.479	0.010	0.067	0.105	0.177	0.566	-0.249	1.124	0.897	1.841	1.920	0.096	-0.013	0.011
0.041	25.464	0.008	0.068	0.117	0.165	0.553	-0.231	1.184	0.874	1.836	1.923	0.093	-0.011	0.013
0.041	25.479	0.009	0.065	0.126	0.154	0.562	-0.230	1.214	0.849	1.835	1.924	0.092	-0.008	0.013
0.041	25.479	0.009	0.067	0.142	0.143	0.596	-0.202	1.203	0.808	1.832	1.928	0.087	-0.002	0.016
0.042	25.473	0.008	0.067	0.154	0.135	0.626	-0.177	1.156	0.746	1.840	1.934	0.084	-0.002	0.016
0.042	25.482	0.005	0.068	0.167	0.127	0.658	-0.112	1.059	0.688	1.837	1.927	0.079	-0.002	0.019
0.042	25.485	0.005	0.069	0.179	0.120	0.651	-0.069	1.016	0.642	1.833	1.927	0.072	0.001	0.022
0.042	25.470	0.003	0.072	0.185	0.115	0.637	-0.012	1.006	0.628	1.836	1.923	0.072	0.004	0.022
0.042	25.485	0.003	0.073	0.189	0.112	0.616	0.007	1.005	0.647	1.836	1.922	0.072	0.007	0.026
0.043	25.467	0.003	0.075	0.188	0.109	0.622	0.031	1.033	0.690	1.840	1.926	0.065	0.009	0.030
0.043	25.479	0.003	0.080	0.184	0.107	0.653	0.019	1.081	0.728	1.848	1.924	0.063	0.012	0.030
0.043	25.491	0.001	0.082	0.176	0.107	0.700	0.047	1.081	0.731	1.847	1.925	0.059	0.016	0.036
0.043	25.464	0.003	0.084	0.163	0.105	0.714	0.064	1.037	0.695	1.835	1.933	0.057	0.019	0.041
0.043	25.485	0.000	0.087	0.148	0.103	0.711	0.116	0.987	0.671	1.839	1.932	0.054	0.023	0.043
0.044	25.491	-0.001	0.090	0.130	0.102	0.668	0.157	0.955	0.639	1.836	1.934	0.049	0.026	0.049
0.044	25.479	-0.002	0.091	0.106	0.102	0.628	0.211	0.959	0.601	1.840	1.931	0.049	0.029	0.057
0.044	25.479	-0.003	0.094	0.081	0.101	0.604	0.237	0.967	0.592	1.846	1.936	0.046	0.031	0.060
0.044	25.479	-0.007	0.095	0.055	0.099	0.611	0.237	0.996	0.604	1.853	1.930	0.043	0.035	0.067
0.044	25.488	-0.010	0.096	0.027	0.097	0.635	0.250	1.017	0.590	1.851	1.931	0.042	0.036	0.073
0.045	25.500	-0.011	0.096	-0.001	0.098	0.663	0.250	1.048	0.613	1.845	1.927	0.038	0.040	0.079
0.045	25.507	-0.013	0.096	-0.028	0.098	0.675	0.290	1.082	0.620	1.846	1.924	0.037	0.038	0.086
0.045	25.485	-0.015	0.095	-0.052	0.101	0.652	0.346	1.129	0.686	1.846	1.931	0.034	0.039	0.090
0.045	25.497	-0.013	0.094	-0.075	0.107	0.616	0.425	1.171	0.743	1.842	1.926	0.031	0.037	0.100
0.045	25.491	-0.016	0.093	-0.094	0.108	0.551	0.484	1.212	0.795	1.837	1.931	0.028	0.036	0.106
0.046	25.488	-0.018	0.092	-0.111	0.111	0.535	0.534	1.215	0.814	1.843	1.940	0.024	0.035	0.112
0.046	25.485	-0.018	0.090	-0.123	0.117	0.558	0.549	1.236	0.792	1.845	1.947	0.024	0.032	0.124
0.046	25.497	-0.021	0.089	-0.133	0.123	0.555	0.556	1.210	0.801	1.840	1.943	0.022	0.030	0.127
0.046	25.467	-0.022	0.090	-0.138	0.126	0.590	0.575	1.189	0.713	1.834	1.943	0.018	0.026	0.132
0.046	25.488	-0.025	0.085	-0.140	0.132	0.604	0.571	1.183	0.672	1.847	1.943	0.019	0.023	0.141
0.047	25.504	-0.025	0.087	-0.140	0.137	0.554	0.638	1.144	0.645	1.850	1.948	0.016	0.023	0.144
0.047	25.479	-0.025	0.085	-0.135	0.144	0.498	0.686	1.083	0.623	1.844	1.936	0.014	0.022	0.150
0.047	25.513	-0.027	0.085	-0.131	0.149	0.447	0.714	1.006	0.625	1.851	1.937	0.018	0.020	0.153
0.047	25.485	-0.026	0.082	-0.124	0.153	0.403	0.704	0.959	0.611	1.846	1.933	0.017	0.019	0.159
0.047	25.494	-0.028	0.080	-0.118	0.159	0.415	0.694	0.909	0.648	1.842	1.926	0.016	0.019	0.164
0.048	25.488	-0.031	0.078	-0.111	0.165	0.432	0.660	0.908	0.628	1.844	1.931	0.019	0.019	0.167
0.048	25.479	-0.033	0.078	-0.105	0.169	0.481	0.641	0.912	0.626	1.848	1.936	0.020	0.019	0.173
0.048	25.488	-0.035	0.074	-0.099	0.172	0.531	0.647	0.947	0.591	1.851	1.931	0.020	0.020	0.175
0.048	25.504	-0.035	0.074	-0.093	0.176	0.549	0.666	0.940	0.572	1.853	1.931	0.024	0.022	0.177
0.048	25.491	-0.034	0.073	-0.088	0.180	0.533	0.691	0.906	0.566	1.850	1.931	0.024	0.024	0.179
0.049	25.482	-0.032	0.072	-0.085	0.182	0.492	0.678	0.838	0.571	1.846	1.936	0.025	0.025	0.180
0.049	25.507	-0.032	0.072	-0.084	0.184	0.460	0.653	0.787	0.604	1.846	1.942	0.026	0.027	0.181
0.049	25.497	-0.030	0.072	-0.081	0.184	0.440	0.585	0.738	0.644	1.836	1.940	0.026	0.029	0.183
0.049	25.500	-0.032	0.073	-0.080	0.185	0.441	0.551	0.739	0.678	1.848	1.946	0.025	0.031	0.182
0.049	25.534	-0.034	0.072	-0.081	0.183	0.470	0.504	0.746	0.651	1.845	1.941	0.027	0.033	0.176
0.050	25.516	-0.036	0.073	-0.078	0.182	0.531	0.501	0.787	0.577	1.847	1.943	0.028	0.033	0.178
0.050	25.504	-0.035	0.071	-0.081	0.179	0.570	0.505	0.795	0.545	1.835	1.941	0.026	0.037	0.173
0.050	25.513	-0.036	0.072	-0.079	0.173	0.570	0.521	0.792	0.490	1.844	1.943	0.025	0.037	0.170
0.050	25.519	-0.035	0.070	-0.081	0.164	0.559	0.531	0.751	0.447	1.848	1.937	0.024	0.036	0.166
0.050	25.525	-0.033	0.069	-0.081	0.158	0.543	0.537	0.676	0.475	1.850	1.941	0.021	0.036	0.158
0.051	25.549	-0.032	0.067	-0.084	0.148	0.526	0.520	0.640	0.494	1.841	1.940	0.018	0.036	0.155
0.051	25.546	-0.029	0.065	-0.087	0.137	0.536	0.493	0.614	0.517	1.852	1.936	0.016	0.035	0.153
0.051	25.552	-0.027	0.063	-0.092	0.128	0.558	0.494	0.605	0.567	1.842	1.937	0.013	0.031	0.145
0.051	25.571	-0.025	0.060	-0.096	0.119	0.599	0.494	0.635	0.592	1.847	1.940	0.008	0.033	0.139
0.051	25.562	-0.026	0.059	-0.103	0.108	0.620	0.537	0.677	0.647	1.845	1.943	0.005	0.029	0.136
0.052	25.555	-0.026	0.056	-0.107	0.099	0.638	0.569	0.712	0.679	1.847	1.941	0.001	0.029	0.127
0.052	25.565	-0.026	0.056	-0.115	0.090	0.645	0.582	0.726	0.705	1.850	1.941	-0.001	0.029	0.122
0.052	25.577	-0.027	0.053	-0.120	0.082	0.655	0.578	0.666	0.716	1.849	1.940	-0.002	0.024	0.118
0.052	25.586	-0.025	0.051	-0.128	0.075	0.691	0.561	0.626	0.762	1.841	1.939	-0.007	0.022	0.113
0.052	25.571	-0.021	0.048	-0.130	0.069	0.734	0.530	0.574	0.797	1.847	1.935	-0.009	0.022	0.106
0.053	25.592	-0.020	0.045	-0.132	0.064	0.788	0.513	0.574	0.804	1.846	1.942	-0.011	0.019	0.102
0.053	25.574	-0.018	0.043	-0.132	0.058	0.819	0.520	0.589	0.759	1.851	1.939	-0.018	0.018	0.100
0.053	25.586	-0.016	0.042	-0.131	0.055	0.825	0.558	0.657	0.724	1.841	1.937	-0.016	0.017	0.097
0.053	25.607	-0.015	0.039	-0.129	0.052	0.788	0.618	0.720	0.646	1.846	1.946	-0.015	0.014	0.089
0.053	25.583	-0.014	0.037	-0.124	0.052	0.735	0.669	0.778	0.606	1.845	1.935	-0.018	0.014	0.085
0.054	25.580	-0.017	0.035	-0.120	0.051	0.693	0.725	0.779	0.653	1.841	1.935	-0.018	0.010	0.080
0.054	25.592	-0.016	0.031	-0.112	0.053	0.708	0.744	0.748	0.723	1.845	1.929	-0.017	0.009	0.076
0.054	25.598	-0.017	0.030	-0.104	0.054	0.762	0.736	0.691	0.817	1.834	1.945	-0.019	0.009	0.069
0.054	25.613	-0.021	0.026	-0.094	0.055	0.836	0.741	0.681	0.890	1.837	1.947	-0.021	0.007	0.065
0.054	25.592	-0.023	0.025	-0.084	0.057	0.884	0.764	0.714	0.929	1.855	1.952	-0.021	0.002	0.061
0.055	25.601	-0.025	0.024	-0.073	0.058	0.889	0.801	0.789	0.902	1.850	1.946	-0.021	-0.000	0.057
0.055	25.598	-0.026	0.023	-0.062	0.057	0.836	0.881	0.852	0.847	1.844	1.943	-0.023	-0.004	0.056
0.055	25.586	-0.026	0.022	-0.049	0.057	0.750	0.969	0.854	0.778	1.848	1.943	-0.023	-0.008	0.045
0.055	25.604	-0.026	0.021	-0.039	0.058	0.683	1.039	0.797	0.765	1.855	1.947	-0.024	-0.012	0.038
0.055	25.583	-0.026	0.019	-0.030	0.056	0.663	1.077	0.718	0.775	1.858	1.946	-0.026	-0.016	0.036
0.056	25.589	-0.027	0.019	-0.021	0.057	0.708	1.074	0.643	0.828	1.842	1.944	-0.024	-0.018	0.030
0.056	25.583	-0.029	0.020	-0.014	0.055	0.781	1.043	0.602	0.847	1.856	1.944	-0.022	-0.025	0.023
0.056	25.595	-0.030	0.019	-0.010	0.055	0.847	0.990	0.616	0.892	1.851	1.947	-0.027	-0.032	0.020
0.056	25.580	-0.036	0.019	-0.009	0.054	0.807	0.991	0.665	0.874	1.847	1.935	-0.026	-0.035	0.010
0.056	25.583	-0.036	0.019	-0.006	0.055	0.766	1.031	0.683	0.801	1.846	1.944	-0.028	-0.041	0.008
0.057	25.580	-0.041	0.016	-0.006	0.057	0.699	1.112	0.630	0.754	1.851	1.940	-0.027	-0.043	0.005
0.057	25.574	-0.044	0.016	-0.010	0.058	0.679	1.214	0.531	0.764	1.854	1.942	-0.027	-0.053	-0.004
0.057	25.571	-0.046	0.013	-0.016	0.062	0.696	1.275	0.415	0.795	1.850	1.941	-0.028	-0.059	-0.004
0.057	25.577	-0.049	0.013	-0.024	0.066	0.738	1.293	0.337	0.849	1.848	1.943	-0.029	-0.066	-0.007
0.057	25.571	-0.052	0.011	-0.035	0.072	0.809	1.258	0.325	0.868	1.850	1.946	-0.028	-0.069	-0.009
0.058	25.577	-0.056	0.009	-0.047	0.079	0.844	1.180	0.331	0.864	1.852	1.946	-0.029	-0.072	-0.011
0.058	25.558	-0.059	0.007	-0.062	0.088	0.852	1.147	0.403	0.813	1.852	1.940	-0.030	-0.079	-0.015
0.058	25.552	-0.063	0.005	-0.079	0.096	0.834	1.150	0.417	0.768	1.847	1.945	-0.029	-0.083	-0.017
0.058	25.552	-0.064	0.005	-0.097	0.104	0.809	1.207	0.416	0.764	1.852	1.941	-0.030	-0.088	-0.017
0.058	25.537	-0.065	0.006	-0.116	0.112	0.800	1.287	0.378	0.790	1.855	1.943	-0.026	-0.089	-0.019
0.059	25.543	-0.066	0.005	-0.135	0.117	0.787	1.329	0.291	0.796	1.859	1.936	-0.022	-0.094	-0.021
0.059	25.543	-0.069	0.007	-0.154	0.121	0.820	1.358	0.222	0.792	1.860	1.935	-0.024	-0.095	-0.020
0.059	25.546	-0.070	0.007	-0.171	0.123	0.824	1.308	0.242	0.761	1.858	1.938	-0.022	-0.095	-0.021
0.059	25.543	-0.076	0.010	-0.187	0.124	0.823	1.289	0.238	0.728	1.852	1.941	-0.020	-0.097	-0.021
0.059	25.546	-0.079	0.010	-0.200	0.121	0.788	1.236	0.267	0.686	1.857	1.941	-0.018	-0.096	-0.021
0.060	25.534	-0.085	0.013	-0.212	0.116	0.774	1.253	0.298	0.682	1.845	1.941	-0.016	-0.093	-0.019
0.060	25.540	-0.088	0.016	-0.222	0.109	0.749	1.298	0.249	0.708	1.854	1.946	-0.015	-0.094	-0.018
0.060	25.528	-0.093	0.020	-0.227	0.102	0.768	1.351	0.210	0.753	1.854	1.939	-0.013	-0.093	-0.017
0.060	25.519	-0.094	0.024	-0.231	0.092	0.767	1.375	0.174	0.800	1.855	1.947	-0.012	-0.089	-0.017
0.060	25.531	-0.095	0.025	-0.233	0.082	0.803	1.366	0.135	0.802	1.857	1.941	-0.012	-0.087	-0.014
0.061	25.516	-0.098	0.028	-0.231	0.073	0.784	1.329	0.199	0.843	1.849	1.939	-0.009	-0.084	-0.011
0.061	25.504	-0.099	0.030	-0.228	0.066	0.778	1.312	0.231	0.880	1.858	1.941	-0.006	-0.081	-0.011
0.061	25.528	-0.102	0.032	-0.223	0.058	0.771	1.342	0.260	0.912	1.864	1.942	-0.004	-0.078	-0.008
0.061	25.507	-0.105	0.035	-0.215	0.053	0.769	1.422	0.281	0.965	1.859	1.940	-0.004	-0.073	-0.007
0.061	25.516	-0.107	0.037	-0.208	0.052	0.759	1.530	0.272	0.947	1.856	1.932	-0.003	-0.071	-0.004
0.062	25.497	-0.111	0.041	-0.197	0.051	0.783	1.604	0.240	0.895	1.855	1.932	-0.001	-0.069	-0.001
0.062	25.491	-0.111	0.043	-0.189	0.051	0.795	1.626	0.205	0.877	1.853	1.931	-0.000	-0.063	0.005
0.062	25.500	-0.112	0.045	-0.178	0.060	0.792	1.571	0.228	0.862	1.866	1.928	0.001	-0.064	0.010
0.062	25.500	-0.113	0.046	-0.168	0.069	0.783	1.517	0.267	0.882	1.856	1.928	0.002	-0.061	0.010
0.062	25.488	-0.114	0.047	-0.159	0.080	0.765	1.464	0.303	0.920	1.863	1.925	0.000	-0.057	0.013
0.063	25.491	-0.113	0.050	-0.152	0.092	0.742	1.459	0.371	0.940	1.861	1.933	0.003	-0.057	0.017
0.063	25.473	-0.115	0.050	-0.146	0.105	0.751	1.495	0.429	0.980	1.856	1.939	0.001	-0.056	0.019
0.063	25.482	-0.115	0.050	-0.139	0.117	0.739	1.555	0.454	0.977	1.856	1.941	-0.000	-0.055	0.021
0.063	25.482	-0.116	0.048	-0.134	0.129	0.732	1.610	0.475	0.997	1.864	1.934	0.003	-0.052	0.026
0.063	25.494	-0.116	0.048	-0.128	0.137	0.738	1.598	0.474	1.013	1.856	1.937	0.002	-0.050	0.030
0.064	25.485	-0.118	0.048	-0.123	0.145	0.723	1.576	0.466	1.055	1.863	1.942	0.001	-0.049	0.033
0.064	25.485	-0.116	0.047	-0.120	0.152	0.699	1.493	0.459	1.086	1.863	1.937	0.001	-0.046	0.038
0.064	25.504	-0.118	0.047	-0.119	0.156	0.682	1.445	0.448	1.142	1.865	1.937	0.002	-0.046	0.042
0.064	25.497	-0.118	0.047	-0.119	0.158	0.675	1.444	0.451	1.134	1.870	1.933	0.005	-0.043	0.044
0.064	25.494	-0.115	0.049	-0.119	0.159	0.671	1.465	0.457	1.129	1.876	1.928	0.008	-0.041	0.049
0.065	25.476	-0.112	0.048	-0.122	0.159	0.679	1.515	0.448	1.053	1.859	1.939	0.008	-0.039	0.050
0.065	25.479	-0.108	0.049	-0.124	0.157	0.672	1.538	0.400	1.003	1.866	1.933	0.009	-0.035	0.055
0.065	25.476	-0.107	0.048	-0.125	0.154	0.642	1.525	0.352	0.974	1.860	1.933	0.010	-0.031	0.058
0.065	25.470	-0.101	0.049	-0.126	0.150	0.629	1.464	0.294	0.987	1.859	1.933	0.012	-0.028	0.064
0.065	25.485	-0.103	0.050	-0.127	0.147	0.609	1.409	0.247	1.022	1.863	1.929	0.015	-0.024	0.065
0.066	25.473	-0.101	0.050	-0.125	0.145	0.597	1.344	0.220	1.044	1.862	1.938	0.013	-0.018	0.068
0.066	25.494	-0.104	0.053	-0.124	0.140	0.582	1.334	0.228	1.041	1.855	1.934	0.017	-0.013	0.072
0.066	25.482	-0.101	0.055	-0.117	0.136	0.607	1.365	0.256	0.998	1.864	1.924	0.017	-0.010	0.076
0.066	25.485	-0.100	0.055	-0.109	0.135	0.610	1.367	0.227	0.974	1.856	1.922	0.017	-0.000	0.077
0.066	25.482	-0.097	0.057	-0.100	0.131	0.592	1.389	0.202	0.958	1.857	1.933	0.017	0.000	0.079
0.067	25.464	-0.089	0.059	-0.087	0.129	0.614	1.357	0.179	1.005	1.855	1.933	0.018	0.005	0.082
0.067	25.500	-0.087	0.059	-0.076	0.126	0.581	1.286	0.118	1.071	1.862	1.940	0.017	0.011	0.085
0.067	25.485	-0.081	0.063	-0.062	0.123	0.582	1.231	0.090	1.126	1.867	1.937	0.017	0.015	0.093
0.067	25.482	-0.079	0.064	-0.047	0.119	0.546	1.216	0.099	1.167	1.850	1.929	0.016	0.021	0.090
0.067	25.476	-0.075	0.065	-0.032	0.113	0.546	1.245	0.073	1.144	1.868	1.935	0.013	0.025	0.093
0.068	25.504	-0.074	0.066	-0.017	0.105	0.533	1.296	0.101	1.119	1.858	1.938	0.013	0.027	0.095
0.068	25.479	-0.072	0.067	-0.002	0.098	0.530	1.336	0.111	1.056	1.852	1.932	0.010	0.034	0.098
0.068	25.504	-0.070	0.069	0.009	0.089	0.535	1.357	0.064	1.039	1.856	1.927	0.006	0.039	0.101
0.068	25.482	-0.068	0.071	0.021	0.080	0.533	1.341	0.040	1.071	1.856	1.927	0.007	0.040	0.103
0.068	25.482	-0.062	0.073	0.027	0.070	0.530	1.312	0.014	1.145	1.860	1.928	0.000	0.040	0.106
0.069	25.497	-0.059	0.074	0.032	0.061	0.525	1.281	0.019	1.241	1.851	1.930	-0.002	0.043	0.106
0.069	25.497	-0.053	0.075	0.034	0.053	0.519	1.305	0.057	1.306	1.852	1.929	-0.006	0.045	0.108
0.069	25.491	-0.048	0.075	0.034	0.046	0.521	1.335	0.083	1.342	1.870	1.926	-0.010	0.045	0.110
0.069	25.516	-0.043	0.076	0.030	0.041	0.522	1.398	0.116	1.383	1.854	1.926	-0.012	0.044	0.110
0.069	25.510	-0.041	0.079	0.022	0.036	0.517	1.457	0.117	1.381	1.862	1.919	-0.012	0.045	0.109
0.070	25.507	-0.039	0.080	0.013	0.033	0.514	1.492	0.102	1.411	1.865	1.927	-0.018	0.045	0.112
0.070	25.519	-0.039	0.078	-0.001	0.031	0.500	1.486	0.084	1.453	1.863	1.920	-0.020	0.044	0.108
0.070	25.504	-0.035	0.077	-0.016	0.029	0.516	1.426	0.089	1.465	1.859	1.921	-0.021	0.043	0.107
0.070	25.519	-0.031	0.075	-0.032	0.031	0.521	1.382	0.110	1.502	1.861	1.925	-0.024	0.043	0.104
0.070	25.522	-0.027	0.075	-0.053	0.031	0.554	1.397	0.151	1.499	1.865	1.922	-0.023	0.042	0.102
0.071	25.491	-0.022	0.075	-0.073	0.033	0.583	1.456	0.167	1.481	1.861	1.923	-0.026	0.040	0.100
0.071	25.531	-0.020	0.074	-0.092	0.037	0.603	1.518	0.194	1.479	1.855	1.921	-0.020	0.038	0.095
0.071	25.516	-0.018	0.074	-0.112	0.040	0.602	1.578	0.175	1.457	1.861	1.917	-0.023	0.036	0.091
0.071	25.519	-0.015	0.075	-0.130	0.044	0.596	1.599	0.173	1.433	1.865	1.936	-0.022	0.035	0.084
0.071	25.519	-0.013	0.076	-0.147	0.046	0.584	1.589	0.184	1.452	1.857	1.927	-0.021	0.027	0.078
0.072	25.540	-0.012	0.074	-0.162	0.047	0.581	1.575	0.196	1.462	1.860	1.926	-0.019	0.026	0.078
0.072	25.528	-0.010	0.076	-0.175	0.047	0.575	1.560	0.235	1.476	1.858	1.920	-0.017	0.021	0.066
0.072	25.528	-0.009	0.077	-0.186	0.045	0.589	1.538	0.254	1.519	1.854	1.930	-0.016	0.019	0.059
0.072	25.543	-0.006	0.079	-0.197	0.041	0.599	1.547	0.284	1.568	1.860	1.930	-0.013	0.011	0.050
0.072	25.525	-0.005	0.081	-0.204	0.039	0.583	1.560	0.296	1.577	1.858	1.926	-0.011	0.004	0.046
0.073	25.525	-0.005	0.082	-0.212	0.031	0.581	1.589	0.306	1.580	1.860	1.926	-0.011	0.002	0.040
0.073	25.537	-0.004	0.086	-0.216	0.026	0.577	1.596	0.318	1.597	1.847	1.931	-0.006	-0.005	0.031
0.073	25.525	-0.003	0.088	-0.220	0.018	0.591	1.569	0.327	1.608	1.853	1.920	-0.004	-0.015	0.025
0.073	25.525	-0.004	0.092	-0.225	0.009	0.585	1.537	0.337	1.697	1.860	1.929	-0.004	-0.021	0.020
0.073	25.540	-0.005	0.095	-0.228	0.000	0.599	1.501	0.307	1.712	1.853	1.923	-0.002	-0.031	0.010
0.074	25.549	-0.006	0.097	-0.233	-0.008	0.604	1.480	0.289	1.761	1.853	1.914	0.004	-0.037	0.005
0.074	25.531	-0.007	0.097	-0.234	-0.016	0.567	1.455	0.265	1.777	1.852	1.922	0.005	-0.045	-0.002
0.074	25.543	-0.008	0.097	-0.236	-0.023	0.562	1.459	0.251	1.787	1.859	1.923	0.007	-0.056	-0.008
0.074	25.537	-0.011	0.095	-0.236	-0.032	0.533	1.420	0.252	1.771	1.850	1.926	0.009	-0.061	-0.012
0.074	25.546	-0.013	0.097	-0.236	-0.038	0.548	1.374	0.249	1.753	1.854	1.927	0.009	-0.069	-0.019
0.075	25.543	-0.015	0.095	-0.236	-0.046	0.542	1.355	0.237	1.721	1.857	1.925	0.015	-0.075	-0.024
0.075	25.546	-0.015	0.098	-0.236	-0.050	0.561	1.334	0.226	1.709	1.845	1.931	0.021	-0.086	-0.028
0.075	25.562	-0.019	0.097	-0.238	-0.056	0.572	1.360	0.203	1.732	1.856	1.924	0.022	-0.094	-0.031
0.075	25.552	-0.019	0.100	-0.236	-0.059	0.573	1.369	0.180	1.757	1.851	1.926	0.024	-0.100	-0.030
0.075	25.562	-0.026	0.100	-0.237	-0.064	0.525	1.404	0.169	1.813	1.855	1.922	0.031	-0.106	-0.036
0.076	25.543	-0.024	0.102	-0.234	-0.067	0.501	1.399	0.168	1.810	1.855	1.917	0.034	-0.114	-0.036
0.076	25.558	-0.033	0.103	-0.232	-0.068	0.472	1.374	0.190	1.823	1.862	1.922	0.034	-0.118	-0.039
0.076	25.571	-0.038	0.107	-0.227	-0.072	0.457	1.328	0.211	1.832	1.852	1.911	0.044	-0.124	-0.043
0.076	25.589	-0.040	0.107	-0.222	-0.075	0.500	1.249	0.207	1.851	1.854	1.914	0.049	-0.131	-0.040
0.076	25.580	-0.046	0.108	-0.215	-0.073	0.538	1.176	0.218	1.896	1.855	1.913	0.055	-0.130	-0.043
0.077	25.565	-0.048	0.110	-0.207	-0.076	0.567	1.132	0.219	1.939	1.857	1.912	0.060	-0.139	-0.043
0.077	25.580	-0.050	0.107	-0.196	-0.078	0.598	1.116	0.182	1.992	1.846	1.919	0.066	-0.137	-0.043
0.077	25.595	-0.053	0.109	-0.185	-0.078	0.585	1.132	0.129	2.015	1.847	1.918	0.070	-0.138	-0.043
0.077	25.571	-0.058	0.110	-0.171	-0.080	0.563	1.186	0.083	2.000	1.852	1.925	0.076	-0.140	-0.044
0.077	25.577	-0.061	0.112	-0.158	-0.078	0.537	1.223	0.058	2.005	1.856	1.920	0.081	-0.142	-0.044
0.078	25.580	-0.067	0.114	-0.145	-0.077	0.523	1.236	0.034	2.009	1.855	1.925	0.086	-0.143	-0.041
0.078	25.586	-0.072	0.117	-0.130	-0.079	0.521	1.209	0.026	2.010	1.858	1.913	0.091	-0.145	-0.039
0.078	25.580	-0.076	0.120	-0.113	-0.077	0.538	1.157	0.009	2.029	1.864	1.913	0.096	-0.141	-0.041
0.078	25.620	-0.079	0.124	-0.096	-0.080	0.536	1.102	-0.028	2.069	1.861	1.914	0.100	-0.140	-0.039
0.078	25.595	-0.081	0.129	-0.079	-0.081	0.530	1.050	-0.021	2.095	1.863	1.914	0.105	-0.140	-0.039
0.079	25.604	-0.082	0.132	-0.061	-0.082	0.528	1.033	-0.047	2.083	1.867	1.914	0.108	-0.138	-0.040
0.079	25.601	-0.085	0.136	-0.045	-0.083	0.500	1.037	-0.029	2.135	1.860	1.924	0.114	-0.136	-0.039
0.079	25.629	-0.085	0.139	-0.029	-0.083	0.500	1.037	-0.016	2.168	1.862	1.922	0.115	-0.135	-0.038
0.079	25.595	-0.090	0.142	-0.014	-0.083	0.507	1.041	-0.025	2.179	1.861	1.926	0.117	-0.132	-0.036
0.079	25.641	-0.093	0.145	-0.000	-0.083	0.485	1.034	-0.024	2.219	1.858	1.928	0.124	-0.125	-0.036
0.080	25.607	-0.094	0.151	0.010	-0.080	0.472	1.025	-0.033	2.240	1.860	1.923	0.124	-0.121	-0.033
0.080	25.616	-0.098	0.154	0.020	-0.077	0.435	1.010	-0.076	2.248	1.854	1.919	0.128	-0.116	-0.031
0.080	25.610	-0.100	0.158	0.027	-0.072	0.411	1.013	-0.054	2.232	1.860	1.926	0.129	-0.112	-0.028
0.080	25.613	-0.101	0.164	0.034	-0.062	0.396	0.989	-0.037	2.187	1.858	1.915	0.128	-0.107	-0.024
0.080	25.620	-0.102	0.165	0.040	-0.053	0.376	0.986	-0.019	2.136	1.857	1.918	0.133	-0.102	-0.022
0.081	25.644	-0.101	0.171	0.047	-0.039	0.377	0.994	0.005	2.121	1.857	1.930	0.137	-0.098	-0.019
0.081	25.632	-0.100	0.172	0.052	-0.025	0.400	0.997	0.010	2.154	1.860	1.922	0.136	-0.091	-0.015
0.081	25.644	-0.097	0.175	0.056	-0.006	0.415	0.991	-0.009	2.215	1.864	1.921	0.140	-0.086	-0.010
0.081	25.653	-0.097	0.176	0.061	0.013	0.413	0.993	0.013	2.258	1.861	1.923	0.138	-0.079	-0.005
0.081	25.641	-0.094	0.176	0.064	0.035	0.435	1.015	0.046	2.267	1.864	1.925	0.139	-0.075	0.002
0.082	25.650	-0.093	0.174	0.070	0.060	0.405	1.029	0.108	2.254	1.860	1.917	0.140	-0.067	0.004
0.082	25.650	-0.090	0.174	0.074	0.083	0.392	1.027	0.143	2.242	1.859	1.913	0.139	-0.062	0.007
0.082	25.644	-0.089	0.171	0.078	0.108	0.392	1.038	0.158	2.226	1.862	1.919	0.140	-0.056	0.018
0.082	25.647	-0.085	0.169	0.082	0.134	0.405	1.011	0.153	2.222	1.865	1.916	0.140	-0.049	0.026
0.082	25.638	-0.082	0.169	0.085	0.159	0.415	1.008	0.122	2.203	1.858	1.918	0.140	-0.042	0.031
0.083	25.656	-0.078	0.167	0.088	0.186	0.445	0.999	0.096	2.170	1.857	1.916	0.141	-0.038	0.038
0.083	25.671	-0.076	0.165	0.091	0.213	0.474	1.005	0.090	2.131	1.863	1.908	0.140	-0.032	0.042
0.083	25.656	-0.073	0.164	0.092	0.239	0.512	0.991	0.111	2.058	1.859	1.918	0.139	-0.026	0.053
0.083	25.659	-0.070	0.160	0.094	0.264	0.522	0.973	0.147	1.990	1.856	1.922	0.138	-0.018	0.064
0.083	25.665	-0.068	0.156	0.096	0.291	0.544	0.944	0.160	1.963	1.868	1.918	0.139	-0.011	0.068
0.084	25.668	-0.063	0.154	0.100	0.314	0.549	0.923	0.156	1.928	1.861	1.922	0.135	-0.006	0.076
0.084	25.677	-0.061	0.148	0.100	0.337	0.536	0.905	0.145	1.965	1.873	1.920	0.135	-0.002	0.085
0.084	25.681	-0.056	0.146	0.105	0.358	0.526	0.880	0.117	1.963	1.865	1.911	0.132	0.006	0.093
0.084	25.665	-0.052	0.142	0.107	0.379	0.525	0.869	0.098	1.973	1.872	1.912	0.128	0.016	0.102
0.084	25.684	-0.048	0.138	0.110	0.397	0.522	0.865	0.119	1.950	1.869	1.921	0.126	0.018	0.111
0.085	25.674	-0.045	0.136	0.111	0.415	0.513	0.852	0.151	1.887	1.870	1.908	0.123	0.025	0.121
0.085	25.662	-0.044	0.134	0.115	0.431	0.513	0.839	0.199	1.830	1.872	1.924	0.118	0.030	0.130
0.085	25.690	-0.044	0.133	0.118	0.447	0.523	0.819	0.249	1.806	1.864	1.919	0.116	0.038	0.140
0.085	25.656	-0.042	0.133	0.121	0.462	0.529	0.786	0.226	1.786	1.866	1.921	0.108	0.043	0.148
0.085	25.656	-0.043	0.131	0.125	0.477	0.546	0.739	0.207	1.809	1.851	1.927	0.106	0.049	0.157
0.086	25.671	-0.042	0.129	0.129	0.486	0.560	0.689	0.167	1.850	1.868	1.925	0.106	0.055	0.167
0.086	25.653	-0.035	0.129	0.131	0.495	0.619	0.672	0.138	1.865	1.857	1.919	0.097	0.060	0.176
0.086	25.665	-0.031	0.127	0.135	0.502	0.644	0.662	0.125	1.874	1.866	1.920	0.092	0.068	0.184
0.086	25.668	-0.021	0.125	0.139	0.505	0.678	0.651	0.083	1.821	1.866	1.919	0.087	0.072	0.194
0.086	25.659	-0.010	0.122	0.142	0.508	0.666	0.595	0.122	1.770	1.870	1.920	0.078	0.078	0.203
0.087	25.665	-0.008	0.122	0.143	0.508	0.603	0.583	0.117	1.735	1.854	1.921	0.074	0.086	0.211
0.087	25.638	-0.001	0.120	0.148	0.506	0.545	0.553	0.087	1.754	1.858	1.907	0.069	0.089	0.221
0.087	25.665	0.001	0.117	0.148	0.507	0.494	0.492	0.038	1.799	1.858	1.921	0.063	0.094	0.228
0.087	25.653	0.004	0.116	0.150	0.503	0.494	0.480	-0.001	1.819	1.864	1.919	0.057	0.098	0.238
0.087	25.653	0.005	0.114	0.151	0.501	0.519	0.461	-0.003	1.810	1.853	1.923	0.051	0.102	0.243
0.088	25.662	0.007	0.114	0.151	0.497	0.583	0.460	0.012	1.779	1.865	1.916	0.046	0.106	0.249
0.088	25.677	0.013	0.112	0.152	0.494	0.595	0.444	0.048	1.736	1.854	1.913	0.039	0.112	0.260
0.088	25.659	0.019	0.111	0.151	0.492	0.580	0.417	0.059	1.775	1.854	1.917	0.035	0.115	0.266
0.088	25.650	0.027	0.109	0.150	0.488	0.520	0.374	0.090	1.792	1.853	1.924	0.027	0.119	0.272
0.088	25.650	0.033	0.105	0.147	0.485	0.474	0.332	0.077	1.811	1.864	1.923	0.022	0.121	0.279
0.089	25.665	0.039	0.100	0.146	0.485	0.462	0.322	0.072	1.877	1.853	1.925	0.018	0.122	0.282
0.089	25.644	0.043	0.095	0.143	0.483	0.489	0.330	0.053	1.892	1.853	1.920	0.010	0.125	0.290
0.089	25.638	0.041	0.091	0.140	0.484	0.543	0.350	0.032	1.881	1.858	1.916	0.005	0.125	0.299
0.089	25.656	0.045	0.087	0.138	0.485	0.617	0.359	0.014	1.868	1.860	1.919	0.000	0.123	0.303
0.089	25.662	0.047	0.081	0.135	0.490	0.655	0.347	-0.012	1.826	1.859	1.916	-0.007	0.126	0.307
0.090	25.662	0.051	0.078	0.130	0.496	0.650	0.324	-0.013	1.814	1.856	1.928	-0.012	0.119	0.309
0.090	25.644	0.056	0.075	0.126	0.502	0.602	0.307	-0.039	1.801	1.863	1.917	-0.017	0.117	0.313
0.090	25.659	0.064	0.072	0.119	0.509	0.577	0.311	-0.027	1.860	1.866	1.921	-0.024	0.117	0.316
0.090	25.662	0.068	0.070	0.113	0.515	0.548	0.324	-0.028	1.898	1.865	1.923	-0.029	0.108	0.316
0.090	25.677	0.073	0.069	0.105	0.524	0.574	0.332	-0.010	1.950	1.854	1.923	-0.035	0.105	0.316
0.091	25.623	0.075	0.067	0.096	0.528	0.595	0.323	0.022	1.938	1.856	1.926	-0.043	0.098	0.315
0.091	25.665	0.075	0.067	0.084	0.534	0.669	0.308	0.049	1.901	1.862	1.924	-0.048	0.091	0.315
0.091	25.656	0.074	0.064	0.072	0.534	0.683	0.267	0.096	1.867	1.857	1.916	-0.047	0.084	0.312
0.091	25.638	0.073	0.064	0.062	0.537	0.679	0.214	0.136	1.816	1.856	1.915	-0.058	0.078	0.309
0.091	25.662	0.070	0.059	0.051	0.533	0.633	0.178	0.163	1.807	1.860	1.918	-0.061	0.072	0.303
0.092	25.644	0.073	0.059	0.041	0.528	0.614	0.156	0.178	1.820	1.854	1.913	-0.064	0.064	0.300
0.092	25.638	0.073	0.056	0.029	0.522	0.627	0.143	0.177	1.846	1.861	1.921	-0.067	0.056	0.294
0.092	25.647	0.077	0.056	0.018	0.511	0.648	0.162	0.156	1.853	1.851	1.921	-0.070	0.053	0.287
0.092	25.635	0.077	0.056	0.009	0.497	0.657	0.194	0.128	1.826	1.848	1.926	-0.073	0.046	0.283
0.092	25.626	0.077	0.056	-0.001	0.483	0.676	0.189	0.128	1.772	1.853	1.921	-0.073	0.038	0.273
0.093	25.653	0.074	0.056	-0.010	0.465	0.648	0.173	0.174	1.705	1.856	1.921	-0.071	0.035	0.262
0.093	25.641	0.069	0.058	-0.016	0.446	0.625	0.157	0.245	1.647	1.851	1.923	-0.075	0.029	0.260
0.093	25.650	0.064	0.058	-0.022	0.425	0.599	0.129	0.316	1.597	1.858	1.931	-0.075	0.024	0.251
0.093	25.641	0.057	0.060	-0.025	0.403	0.610	0.122	0.343	1.554	1.857	1.921	-0.074	0.023	0.240
0.093	25.632	0.053	0.061	-0.027	0.379	0.631	0.118	0.339	1.510	1.857	1.923	-0.073	0.018	0.234
0.094	25.641	0.050	0.062	-0.028	0.356	0.653	0.132	0.322	1.538	1.862	1.932	-0.072	0.017	0.227
0.094	25.629	0.047	0.064	-0.026	0.334	0.679	0.121	0.300	1.535	1.849	1.927	-0.070	0.013	0.218
0.094	25.626	0.045	0.064	-0.024	0.310	0.680	0.116	0.294	1.526	1.850	1.929	-0.066	0.011	0.211
0.094	25.607	0.042	0.066	-0.024	0.283	0.659	0.108	0.330	1.493	1.851	1.927	-0.063	0.011	0.203
0.094	25.613	0.037	0.067	-0.021	0.264	0.645	0.081	0.374	1.483	1.851	1.925	-0.057	0.006	0.200
0.095	25.620	0.032	0.068	-0.020	0.244	0.621	0.075	0.405	1.476	1.848	1.918	-0.057	0.006	0.189
0.095	25.616	0.027	0.072	-0.023	0.222	0.626	0.059	0.446	1.492	1.852	1.921	-0.055	0.006	0.181
0.095	25.613	0.020	0.075	-0.023	0.201	0.644	0.060	0.445	1.513	1.856	1.922	-0.050	0.007	0.175
0.095	25.616	0.015	0.078	-0.028	0.182	0.684	0.050	0.393	1.559	1.850	1.926	-0.049	0.004	0.164
0.095	25.607	0.011	0.082	-0.030	0.161	0.724	0.056	0.368	1.565	1.852	1.923	-0.048	0.001	0.161
0.096	25.620	0.008	0.082	-0.039	0.143	0.757	0.021	0.404	1.536	1.857	1.924	-0.043	0.003	0.158
0.096	25.610	0.006	0.084	-0.045	0.122	0.762	0.012	0.468	1.476	1.865	1.925	-0.041	0.002	0.148
0.096	25.604	0.003	0.083	-0.056	0.101	0.767	0.002	0.581	1.420	1.851	1.934	-0.042	-0.002	0.141
0.096	25.616	-0.001	0.085	-0.068	0.081	0.753	-0.011	0.625	1.346	1.847	1.920	-0.038	-0.001	0.135
0.096	25.610	-0.006	0.084	-0.086	0.060	0.743	-0.050	0.631	1.319	1.855	1.927	-0.038	-0.002	0.131
0.097	25.601	-0.011	0.085	-0.105	0.043	0.738	-0.107	0.558	1.353	1.851	1.932	-0.035	-0.003	0.124
0.097	25.623	-0.019	0.085	-0.124	0.024	0.720	-0.154	0.498	1.403	1.856	1.922	-0.028	-0.005	0.119
0.097	25.598	-0.023	0.086	-0.146	0.008	0.738	-0.192	0.438	1.441	1.854	1.928	-0.031	-0.007	0.117
0.097	25.629	-0.029	0.085	-0.167	-0.008	0.741	-0.216	0.427	1.463	1.856	1.928	-0.029	-0.005	0.111
0.097	25.610	-0.030	0.087	-0.189	-0.022	0.757	-0.195	0.496	1.460	1.857	1.918	-0.027	-0.004	0.109
0.098	25.610	-0.031	0.088	-0.210	-0.034	0.775	-0.170	0.574	1.420	1.855	1.929	-0.024	-0.004	0.107
0.098	25.626	-0.031	0.088	-0.231	-0.045	0.812	-0.145	0.626	1.385	1.848	1.934	-0.023	-0.003	0.102
0.098	25.620	-0.031	0.089	-0.250	-0.055	0.815	-0.140	0.645	1.387	1.851	1.924	-0.020	-0.003	0.105
0.098	25.616	-0.031	0.088	-0.269	-0.062	0.844	-0.149	0.592	1.405	1.856	1.937	-0.017	-0.002	0.104
0.098	25.632	-0.032	0.088	-0.287	-0.066	0.823	-0.191	0.537	1.430	1.857	1.935	-0.015	0.000	0.103
0.099	25.620	-0.033	0.087	-0.304	-0.069	0.795	-0.242	0.490	1.440	1.852	1.925	-0.010	0.003	0.105
0.099	25.620	-0.033	0.086	-0.322	-0.071	0.795	-0.289	0.529	1.433	1.871	1.925	-0.008	0.002	0.107
0.099	25.653	-0.035	0.085	-0.338	-0.067	0.793	-0.332	0.602	1.427	1.856	1.932	-0.004	0.007	0.107
0.099	25.626	-0.035	0.086	-0.353	-0.062	0.788	-0.338	0.653	1.386	1.851	1.937	-0.001	0.007	0.111
0.099	25.647	-0.032	0.085	-0.367	-0.058	0.791	-0.329	0.675	1.380	1.856	1.935	0.003	0.007	0.118
0.100	25.623	-0.032	0.084	-0.378	-0.046	0.786	-0.311	0.662	1.385	1.847	1.931	0.007	0.013	0.117
0.100	25.620	-0.032	0.088	-0.387	-0.040	0.780	-0.279	0.580	1.391	1.852	1.932	0.010	0.015	0.118
0.100	25.650	-0.030	0.088	-0.392	-0.030	0.780	-0.276	0.513	1.406	1.859	1.927	0.016	0.015	0.124
0.100	25.635	-0.030	0.088	-0.395	-0.019	0.788	-0.294	0.509	1.425	1.864	1.929	0.018	0.019	0.128
0.100	25.607	-0.030	0.086	-0.396	-0.006	0.805	-0.323	0.553	1.417	1.860	1.933	0.019	0.020	0.132
0.101	25.653	-0.029	0.083	-0.393	0.005	0.814	-0.356	0.627	1.394	1.847	1.934	0.026	0.021	0.135
0.101	25.616	-0.029	0.080	-0.390	0.017	0.828	-0.380	0.716	1.350	1.852	1.931	0.028	0.022	0.141
0.101	25.629	-0.028	0.078	-0.384	0.029	0.829	-0.395	0.726	1.312	1.853	1.931	0.029	0.023	0.143
0.101	25.626	-0.028	0.074	-0.374	0.042	0.811	-0.400	0.679	1.268	1.858	1.936	0.032	0.025	0.148
0.101	25.613	-0.026	0.074	-0.363	0.055	0.781	-0.393	0.586	1.233	1.860	1.926	0.033	0.024	0.152
0.102	25.589	-0.027	0.074	-0.349	0.065	0.755	-0.379	0.507	1.221	1.865	1.929	0.036	0.023	0.154
0.102	25.620	-0.026	0.072	-0.334	0.076	0.750	-0.381	0.506	1.213	1.860	1.932	0.037	0.023	0.159
0.102	25.620	-0.026	0.072	-0.316	0.083	0.744	-0.375	0.559	1.197	1.860	1.926	0.038	0.023	0.160
0.102	25.604	-0.025	0.071	-0.297	0.091	0.752	-0.361	0.617	1.178	1.854	1.916	0.040	0.021	0.163
0.102	25.613	-0.025	0.070	-0.276	0.093	0.775	-0.340	0.699	1.127	1.855	1.928	0.039	0.020	0.166
0.103	25.616	-0.023	0.069	-0.255	0.095	0.767	-0.353	0.718	1.089	1.861	1.931	0.039	0.020	0.168
0.103	25.629	-0.025	0.069	-0.235	0.092	0.741	-0.325	0.705	1.037	1.859	1.933	0.039	0.018	0.171
0.103	25.601	-0.027	0.067	-0.214	0.089	0.703	-0.342	0.642	1.050	1.855	1.932	0.039	0.018	0.173
0.103	25.595	-0.026	0.066	-0.195	0.083	0.675	-0.374	0.581	1.096	1.863	1.928	0.042	0.017	0.174
0.103	25.598	-0.027	0.065	-0.175	0.074	0.692	-0.403	0.567	1.132	1.865	1.936	0.040	0.017	0.177
0.104	25.598	-0.028	0.066	-0.160	0.064	0.683	-0.402	0.615	1.135	1.870	1.932	0.040	0.016	0.175
0.104	25.620	-0.029	0.066	-0.145	0.052	0.694	-0.387	0.729	1.094	1.856	1.932	0.041	0.018	0.178
0.104	25.629	-0.028	0.067	-0.133	0.039	0.687	-0.367	0.861	1.002	1.861	1.928	0.041	0.017	0.184
0.104	25.629	-0.030	0.069	-0.123	0.026	0.664	-0.337	0.960	0.945	1.858	1.926	0.039	0.019	0.181
0.104	25.626	-0.031	0.071	-0.112	0.014	0.641	-0.312	0.958	0.911	1.865	1.928	0.038	0.021	0.184
0.105	25.604	-0.031	0.072	-0.105	0.002	0.628	-0.301	0.917	0.890	1.859	1.924	0.036	0.022	0.185
0.105	25.616	-0.029	0.072	-0.098	-0.007	0.618	-0.306	0.852	0.918	1.858	1.924	0.036	0.021	0.185
0.105	25.626	-0.029	0.070	-0.093	-0.013	0.630	-0.317	0.839	0.963	1.860	1.925	0.035	0.025	0.189
0.105	25.632	-0.032	0.065	-0.090	-0.016	0.644	-0.343	0.873	0.963	1.856	1.933	0.035	0.027	0.194
0.105	25.635	-0.032	0.064	-0.088	-0.014	0.648	-0.335	0.965	0.966	1.857	1.929	0.034	0.029	0.191
0.106	25.616	-0.031	0.060	-0.088	-0.008	0.657	-0.302	1.056	0.871	1.855	1.940	0.030	0.033	0.193
0.106	25.626	-0.031	0.055	-0.087	0.002	0.663	-0.276	1.096	0.822	1.868	1.935	0.031	0.034	0.193
0.106	25.641	-0.029	0.053	-0.084	0.013	0.653	-0.252	1.096	0.759	1.866	1.926	0.029	0.039	0.194
0.106	25.610	-0.029	0.050	-0.084	0.030	0.646	-0.244	1.033	0.749	1.855	1.933	0.024	0.045	0.194
0.106	25.647	-0.031	0.049	-0.081	0.049	0.638	-0.258	0.961	0.802	1.854	1.935	0.027	0.045	0.193
0.107	25.635	-0.029	0.047	-0.078	0.070	0.657	-0.276	0.905	0.870	1.861	1.923	0.021	0.048	0.194
0.107	25.629	-0.032	0.046	-0.072	0.094	0.682	-0.267	0.944	0.893	1.862	1.931	0.019	0.052	0.192
0.107	25.641	-0.035	0.047	-0.068	0.118	0.704	-0.242	1.040	0.857	1.855	1.933	0.017	0.054	0.190
0.107	25.638	-0.033	0.045	-0.061	0.142	0.726	-0.203	1.156	0.787	1.854	1.927	0.015	0.058	0.189
0.107	25.638	-0.032	0.044	-0.055	0.164	0.719	-0.186	1.198	0.732	1.861	1.934	0.014	0.059	0.187
0.108	25.647	-0.032	0.041	-0.046	0.187	0.712	-0.160	1.150	0.730	1.867	1.935	0.012	0.062	0.182
0.108	25.632	-0.028	0.041	-0.036	0.205	0.679	-0.182	1.053	0.785	1.867	1.933	0.010	0.065	0.181
0.108	25.635	-0.028	0.041	-0.025	0.224	0.671	-0.175	0.956	0.861	1.857	1.935	0.009	0.065	0.179
0.108	25.641	-0.026	0.039	-0.016	0.237	0.679	-0.177	0.942	0.933	1.863	1.927	0.006	0.068	0.172
0.108	25.626	-0.027	0.040	-0.004	0.248	0.684	-0.143	0.992	0.924	1.863	1.931	0.004	0.070	0.170
0.109	25.626	-0.028	0.040	0.004	0.256	0.694	-0.097	1.096	0.862	1.859	1.927	0.003	0.071	0.164
0.109	25.641	-0.028	0.043	0.014	0.261	0.675	-0.062	1.213	0.777	1.856	1.925	0.001	0.072	0.157
0.109	25.623	-0.030	0.043	0.023	0.264	0.666	-0.057	1.268	0.738	1.855	1.927	-0.000	0.072	0.154
0.109	25.623	-0.030	0.044	0.033	0.266	0.653	-0.093	1.228	0.773	1.847	1.925	-0.002	0.073	0.149
0.109	25.635	-0.030	0.045	0.039	0.265	0.644	-0.146	1.124	0.838	1.855	1.927	-0.005	0.074	0.143
0.110	25.616	-0.026	0.046	0.047	0.263	0.662	-0.189	1.029	0.886	1.854	1.930	-0.005	0.071	0.138
0.110	25.647	-0.024	0.046	0.053	0.263	0.676	-0.201	1.023	0.921	1.862	1.925	-0.007	0.074	0.129
0.110	25.629	-0.023	0.046	0.058	0.263	0.695	-0.162	1.077	0.880	1.855	1.933	-0.009	0.068	0.127
0.110	25.620	-0.024	0.045	0.061	0.259	0.699	-0.090	1.171	0.799	1.855	1.931	-0.009	0.066	0.122
0.110	25.623	-0.026	0.045	0.063	0.257	0.693	-0.069	1.222	0.742	1.864	1.932	-0.012	0.066	0.118
0.111	25.626	-0.029	0.045	0.064	0.259	0.660	-0.048	1.193	0.684	1.857	1.929	-0.010	0.061	0.119
0.111	25.616	-0.033	0.045	0.063	0.261	0.640	-0.072	1.108	0.701	1.856	1.939	-0.011	0.061	0.108
0.111	25.613	-0.035	0.047	0.061	0.260	0.639	-0.112	1.010	0.751	1.852	1.937	-0.013	0.056	0.104
0.111	25.620	-0.037	0.049	0.059	0.264	0.645	-0.145	0.941	0.764	1.855	1.932	-0.011	0.052	0.099
0.111	25.607	-0.035	0.051	0.055	0.266	0.679	-0.153	0.955	0.762	1.861	1.930	-0.013	0.050	0.095
0.112	25.601	-0.035	0.053	0.053	0.269	0.681	-0.133	1.039	0.688	1.856	1.938	-0.014	0.046	0.089
0.112	25.644	-0.034	0.056	0.048	0.273	0.681	-0.096	1.150	0.616	1.853	1.934	-0.010	0.042	0.087
0.112	25.601	-0.035	0.059	0.044	0.277	0.677	-0.080	1.219	0.595	1.859	1.933	-0.010	0.041	0.083
0.112	25.604	-0.038	0.063	0.041	0.282	0.663	-0.078	1.207	0.610	1.862	1.926	-0.009	0.036	0.081
0.112	25.601	-0.044	0.067	0.041	0.283	0.653	-0.090	1.104	0.689	1.859	1.927	-0.006	0.029	0.073
0.113	25.586	-0.050	0.069	0.041	0.286	0.667	-0.119	1.040	0.753	1.850	1.923	-0.008	0.028	0.070
0.113	25.595	-0.057	0.075	0.037	0.287	0.675	-0.124	1.006	0.757	1.854	1.928	-0.002	0.025	0.065
0.113	25.635	-0.060	0.076	0.039	0.290	0.698	-0.113	1.078	0.729	1.855	1.929	0.004	0.021	0.060
0.113	25.577	-0.060	0.082	0.041	0.289	0.704	-0.080	1.197	0.668	1.849	1.931	0.003	0.017	0.058
0.113	25.577	-0.061	0.084	0.041	0.287	0.726	-0.044	1.304	0.554	1.848	1.937	0.008	0.015	0.053
0.114	25.583	-0.061	0.088	0.043	0.284	0.746	-0.028	1.311	0.529	1.857	1.923	0.010	0.009	0.050
0.114	25.571	-0.063	0.092	0.049	0.282	0.747	-0.031	1.249	0.543	1.852	1.930	0.014	0.005	0.047
0.114	25.583	-0.065	0.094	0.050	0.276	0.754	-0.029	1.113	0.592	1.856	1.927	0.016	0.002	0.042
0.114	25.592	-0.069	0.098	0.053	0.269	0.740	-0.020	0.995	0.648	1.848	1.928	0.018	-0.001	0.040
0.114	25.580	-0.075	0.101	0.055	0.262	0.752	0.013	0.967	0.655	1.844	1.918	0.022	-0.005	0.038
0.115	25.604	-0.081	0.102	0.058	0.253	0.728	0.066	1.057	0.620	1.839	1.925	0.026	-0.008	0.033
0.115	25.583	-0.083	0.102	0.059	0.242	0.737	0.110	1.214	0.535	1.847	1.930	0.033	-0.011	0.032
0.115	25.577	-0.086	0.103	0.060	0.231	0.761	0.155	1.343	0.478	1.856	1.922	0.033	-0.013	0.031
0.115	25.610	-0.086	0.103	0.061	0.220	0.803	0.157	1.344	0.496	1.860	1.927	0.036	-0.016	0.027
0.115	25.577	-0.089	0.103	0.060	0.210	0.851	0.159	1.243	0.565	1.857	1.926	0.039	-0.016	0.029
0.116	25.601	-0.091	0.105	0.058	0.198	0.863	0.150	1.092	0.647	1.855	1.918	0.044	-0.022	0.025
0.116	25.592	-0.095	0.106	0.056	0.191	0.851	0.181	1.001	0.737	1.852	1.925	0.045	-0.023	0.027
0.116	25.577	-0.101	0.107	0.051	0.177	0.790	0.222	1.014	0.765	1.854	1.932	0.049	-0.024	0.027
0.116	25.586	-0.105	0.108	0.046	0.170	0.760	0.316	1.113	0.717	1.859	1.930	0.053	-0.029	0.024
0.116	25.607	-0.110	0.108	0.042	0.162	0.715	0.383	1.252	0.648	1.853	1.930	0.052	-0.028	0.025
0.117	25.595	-0.114	0.109	0.037	0.155	0.699	0.444	1.363	0.586	1.854	1.927	0.056	-0.029	0.024
0.117	25.598	-0.114	0.107	0.030	0.149	0.696	0.466	1.358	0.572	1.846	1.922	0.058	-0.032	0.023
0.117	25.626	-0.114	0.108	0.021	0.143	0.715	0.475	1.294	0.639	1.860	1.926	0.063	-0.033	0.024
0.117	25.589	-0.113	0.106	0.013	0.140	0.738	0.483	1.127	0.720	1.862	1.929	0.065	-0.034	0.024
0.117	25.607	-0.111	0.104	0.004	0.138	0.744	0.470	1.054	0.801	1.855	1.923	0.071	-0.036	0.024
0.118	25.632	-0.114	0.103	-0.004	0.135	0.735	0.470	1.055	0.809	1.856	1.931	0.071	-0.036	0.026
0.118	25.610	-0.117	0.103	-0.012	0.133	0.696	0.464	1.137	0.757	1.863	1.924	0.075	-0.037	0.024
0.118	25.629	-0.123	0.102	-0.020	0.131	0.670	0.454	1.259	0.707	1.851	1.929	0.079	-0.037	0.024
0.118	25.610	-0.127	0.099	-0.028	0.129	0.653	0.460	1.287	0.680	1.857	1.933	0.081	-0.037	0.023
0.118	25.610	-0.129	0.100	-0.036	0.127	0.665	0.478	1.245	0.707	1.856	1.932	0.086	-0.036	0.024
0.119	25.613	-0.131	0.098	-0.039	0.124	0.691	0.523	1.174	0.789	1.855	1.930	0.088	-0.037	0.026
0.119	25.616	-0.129	0.098	-0.046	0.120	0.725	0.551	1.068	0.863	1.856	1.926	0.090	-0.037	0.023
0.119	25.647	-0.132	0.098	-0.047	0.115	0.730	0.591	0.997	0.942	1.866	1.922	0.096	-0.037	0.026
0.119	25.610	-0.132	0.097	-0.049	0.108	0.724	0.606	0.972	0.971	1.862	1.926	0.096	-0.036	0.027
0.119	25.607	-0.134	0.096	-0.049	0.102	0.684	0.587	1.016	0.969	1.861	1.919	0.100	-0.035	0.026
0.120	25.656	-0.133	0.095	-0.047	0.093	0.692	0.567	1.081	0.934	1.860	1.933	0.104	-0.037	0.028
0.120	25.629	-0.137	0.093	-0.043	0.083	0.698	0.555	1.111	0.900	1.860	1.931	0.108	-0.036	0.027
0.120	25.635	-0.141	0.090	-0.038	0.073	0.710	0.510	1.088	0.895	1.862	1.920	0.109	-0.035	0.029
0.120	25.623	-0.145	0.088	-0.030	0.061	0.749	0.488	1.011	0.908	1.860	1.921	0.112	-0.035	0.030
0.120	25.635	-0.147	0.085	-0.022	0.049	0.727	0.446	0.897	0.937	1.864	1.925	0.114	-0.033	0.030
0.121	25.635	-0.148	0.082	-0.015	0.035	0.712	0.446	0.831	0.971	1.862	1.928	0.115	-0.031	0.032
0.121	25.638	-0.147	0.078	-0.002	0.020	0.677	0.464	0.819	0.977	1.860	1.923	0.117	-0.032	0.029
0.121	25.647	-0.145	0.076	0.006	0.005	0.651	0.509	0.848	0.980	1.863	1.921	0.118	-0.030	0.030
0.121	25.632	-0.144	0.076	0.017	-0.011	0.626	0.547	0.921	0.946	1.861	1.926	0.118	-0.030	0.032
0.121	25.632	-0.144	0.075	0.027	-0.029	0.620	0.560	0.974	0.936	1.861	1.920	0.119	-0.029	0.035
0.122	25.644	-0.145	0.075	0.037	-0.044	0.620	0.560	0.991	0.935	1.861	1.925	0.120	-0.028	0.033
0.122	25.629	-0.145	0.074	0.045	-0.064	0.623	0.541	0.957	0.971	1.869	1.930	0.119	-0.027	0.033
0.122	25.650	-0.149	0.074	0.053	-0.080	0.623	0.507	0.907	1.015	1.864	1.928	0.120	-0.027	0.034
0.122	25.644	-0.151	0.072	0.061	-0.097	0.605	0.486	0.844	1.068	1.871	1.929	0.116	-0.025	0.035
0.122	25.638	-0.154	0.070	0.068	-0.113	0.587	0.481	0.847	1.104	1.860	1.925	0.113	-0.022	0.034
0.123	25.650	-0.152	0.066	0.074	-0.125	0.572	0.489	0.892	1.114	1.871	1.923	0.115	-0.021	0.035
0.123	25.641	-0.151	0.061	0.076	-0.137	0.579	0.513	0.962	1.084	1.876	1.927	0.113	-0.022	0.036
0.123	25.653	-0.146	0.057	0.079	-0.146	0.573	0.535	0.966	1.054	1.878	1.927	0.110	-0.019	0.036
0.123	25.650	-0.143	0.051	0.081	-0.153	0.580	0.558	0.968	1.019	1.872	1.921	0.109	-0.018	0.036
0.123	25.671	-0.137	0.047	0.081	-0.157	0.575	0.560	0.909	1.001	1.869	1.917	0.106	-0.018	0.036
0.124	25.659	-0.135	0.041	0.080	-0.160	0.578	0.556	0.844	0.977	1.881	1.927	0.105	-0.017	0.036
0.124	25.677	-0.134	0.038	0.079	-0.160	0.563	0.548	0.827	0.980	1.874	1.916	0.104	-0.013	0.036
0.124	25.662	-0.133	0.033	0.073	-0.159	0.548	0.536	0.854	0.982	1.871	1.922	0.101	-0.012	0.037
0.124	25.659	-0.135	0.030	0.067	-0.156	0.530	0.573	0.908	0.999	1.870	1.932	0.100	-0.010	0.036
0.124	25.681	-0.137	0.025	0.060	-0.149	0.518	0.565	0.949	1.005	1.873	1.924	0.098	-0.007	0.037
0.125	25.665	-0.138	0.022	0.053	-0.144	0.498	0.587	0.966	1.048	1.877	1.918	0.093	-0.005	0.040
0.125	25.659	-0.134	0.018	0.046	-0.135	0.470	0.625	0.957	1.096	1.878	1.929	0.090	-0.004	0.037
0.125	25.693	-0.133	0.015	0.039	-0.127	0.458	0.658	0.899	1.145	1.875	1.930	0.085	-0.002	0.037
0.125	25.677	-0.127	0.012	0.033	-0.118	0.433	0.678	0.869	1.128	1.864	1.923	0.085	-0.002	0.040
0.125	25.684	-0.121	0.009	0.027	-0.106	0.453	0.682	0.864	1.112	1.873	1.916	0.083	-0.001	0.041
0.126	25.699	-0.120	0.007	0.020	-0.095	0.448	0.647	0.870	1.095	1.874	1.921	0.078	0.002	0.041
0.126	25.699	-0.119	0.008	0.012	-0.086	0.453	0.648	0.886	1.065	1.880	1.921	0.076	0.001	0.040
0.126	25.702	-0.119	0.007	0.005	-0.073	0.443	0.628	0.899	1.068	1.880	1.922	0.069	0.003	0.042
0.126	25.723	-0.120	0.005	-0.003	-0.060	0.411	0.651	0.930	1.070	1.874	1.923	0.067	0.001	0.044
0.126	25.693	-0.117	0.004	-0.008	-0.048	0.375	0.706	0.942	1.045	1.869	1.922	0.063	-0.000	0.042
0.127	25.711	-0.118	0.002	-0.018	-0.036	0.350	0.726	0.933	1.044	1.880	1.917	0.057	0.003	0.045
0.127	25.699	-0.115	-0.001	-0.027	-0.021	0.343	0.757	0.899	1.042	1.878	1.917	0.055	-0.001	0.049
0.127	25.745	-0.110	-0.004	-0.040	-0.003	0.374	0.764	0.892	1.062	1.878	1.927	0.051	0.001	0.046
0.127	25.726	-0.109	-0.004	-0.049	0.012	0.412	0.768	0.859	1.102	1.876	1.921	0.043	-0.001	0.047
0.127	25.720	-0.108	-0.008	-0.061	0.030	0.462	0.769	0.819	1.110	1.877	1.920	0.039	-0.001	0.048
0.128	25.711	-0.108	-0.010	-0.074	0.048	0.498	0.778	0.797	1.139	1.869	1.917	0.033	-0.001	0.048
0.128	25.735	-0.110	-0.013	-0.084	0.067	0.526	0.795	0.756	1.168	1.884	1.924	0.026	-0.004	0.048
0.128	25.751	-0.112	-0.014	-0.095	0.087	0.533	0.815	0.736	1.180	1.877	1.919	0.025	-0.003	0.046
0.128	25.720	-0.111	-0.015	-0.107	0.105	0.537	0.839	0.710	1.168	1.880	1.917	0.019	0.001	0.046
0.128	25.760	-0.110	-0.015	-0.118	0.123	0.533	0.850	0.703	1.164	1.885	1.920	0.015	-0.003	0.047
0.129	25.729	-0.108	-0.014	-0.128	0.140	0.516	0.866	0.648	1.173	1.878	1.914	0.011	-0.002	0.045
0.129	25.739	-0.104	-0.013	-0.136	0.156	0.532	0.881	0.605	1.203	1.883	1.915	0.004	-0.002	0.044
0.129	25.735	-0.103	-0.007	-0.140	0.170	0.532	0.902	0.540	1.260	1.874	1.921	0.003	-0.001	0.040
0.129	25.742	-0.100	-0.008	-0.147	0.183	0.548	0.920	0.483	1.333	1.882	1.918	0.002	-0.000	0.040
0.129	25.742	-0.101	-0.003	-0.144	0.195	0.568	0.955	0.493	1.369	1.871	1.914	-0.005	0.003	0.038
0.130	25.742	-0.103	-0.002	-0.142	0.202	0.574	0.974	0.507	1.385	1.869	1.923	-0.005	0.005	0.035
0.130	25.748	-0.106	0.001	-0.137	0.207	0.590	0.987	0.549	1.362	1.881	1.918	-0.010	0.006	0.036
0.130	25.754	-0.109	0.003	-0.129	0.210	0.581	0.966	0.610	1.320	1.877	1.910	-0.014	0.009	0.034
0.130	25.732	-0.111	0.006	-0.119	0.208	0.574	0.951	0.634	1.319	1.875	1.920	-0.016	0.013	0.029
0.130	25.763	-0.111	0.008	-0.108	0.204	0.548	0.920	0.621	1.347	1.882	1.917	-0.020	0.014	0.030
0.131	25.748	-0.111	0.010	-0.096	0.198	0.556	0.907	0.551	1.407	1.873	1.920	-0.022	0.016	0.028
0.131	25.754	-0.110	0.014	-0.083	0.190	0.521	0.900	0.470	1.482	1.877	1.924	-0.026	0.019	0.024
0.131	25.769	-0.110	0.017	-0.072	0.179	0.511	0.910	0.404	1.527	1.888	1.920	-0.029	0.021	0.023
0.131	25.739	-0.109	0.020	-0.059	0.171	0.506	0.925	0.389	1.526	1.879	1.911	-0.031	0.021	0.023
0.131	25.766	-0.109	0.023	-0.048	0.163	0.496	0.925	0.422	1.504	1.883	1.914	-0.036	0.023	0.023
0.132	25.760	-0.112	0.026	-0.035	0.154	0.498	0.932	0.459	1.481	1.877	1.916	-0.038	0.022	0.022
0.132	25.754	-0.115	0.028	-0.024	0.146	0.533	0.916	0.471	1.469	1.877	1.922	-0.042	0.023	0.023
0.132	25.763	-0.118	0.029	-0.013	0.140	0.555	0.880	0.460	1.492	1.881	1.921	-0.047	0.027	0.020
0.132	25.754	-0.119	0.031	-0.003	0.130	0.569	0.856	0.407	1.527	1.885	1.914	-0.050	0.024	0.018
0.132	25.748	-0.121	0.032	0.006	0.126	0.543	0.822	0.342	1.540	1.875	1.914	-0.052	0.022	0.020
0.133	25.760	-0.119	0.032	0.013	0.125	0.508	0.792	0.302	1.573	1.874	1.908	-0.059	0.024	0.018
0.133	25.754	-0.116	0.034	0.020	0.123	0.449	0.754	0.288	1.562	1.879	1.915	-0.063	0.022	0.017
0.133	25.748	-0.115	0.031	0.024	0.126	0.400	0.727	0.304	1.555	1.878	1.919	-0.063	0.022	0.016
0.133	25.760	-0.117	0.030	0.025	0.131	0.371	0.705	0.315	1.539	1.886	1.914	-0.067	0.021	0.015
0.133	25.754	-0.116	0.031	0.027	0.139	0.352	0.683	0.317	1.550	1.880	1.914	-0.072	0.021	0.014
0.134	25.763	-0.118	0.027	0.025	0.151	0.367	0.623	0.292	1.543	1.882	1.913	-0.075	0.019	0.015
0.134	25.766	-0.121	0.028	0.023	0.162	0.392	0.603	0.252	1.555	1.876	1.924	-0.080	0.019	0.014
0.134	25.751	-0.122	0.025	0.018	0.175	0.402	0.575	0.219	1.552	1.886	1.910	-0.080	0.019	0.013
0.134	25.778	-0.123	0.023	0.013	0.187	0.383	0.566	0.231	1.536	1.885	1.909	-0.080	0.018	0.014
0.134	25.760	-0.121	0.022	0.006	0.201	0.344	0.560	0.247	1.506	1.885	1.911	-0.083	0.019	0.011
0.135	25.772	-0.122	0.018	-0.001	0.213	0.288	0.567	0.301	1.505	1.883	1.914	-0.086	0.019	0.010
0.135	25.772	-0.115	0.015	-0.011	0.222	0.240	0.526	0.343	1.501	1.876	1.915	-0.086	0.019	0.012
0.135	25.751	-0.109	0.015	-0.020	0.233	0.210	0.486	0.338	1.495	1.873	1.913	-0.086	0.018	0.009
0.135	25.787	-0.112	0.014	-0.030	0.241	0.205	0.477	0.315	1.501	1.875	1.908	-0.084	0.021	0.012
0.135	25.772	-0.111	0.013	-0.041	0.247	0.218	0.496	0.263	1.496	1.881	1.916	-0.086	0.016	0.010
0.136	25.787	-0.111	0.012	-0.052	0.253	0.230	0.497	0.257	1.495	1.883	1.908	-0.085	0.023	0.011
0.136	25.763	-0.116	0.012	-0.060	0.253	0.221	0.506	0.238	1.524	1.881	1.911	-0.085	0.026	0.013
0.136	25.769	-0.115	0.013	-0.068	0.255	0.195	0.541	0.239	1.544	1.881	1.906	-0.084	0.024	0.010
0.136	25.778	-0.114	0.010	-0.075	0.253	0.183	0.512	0.242	1.572	1.887	1.913	-0.084	0.026	0.015
0.136	25.787	-0.111	0.010	-0.083	0.247	0.162	0.492	0.246	1.564	1.888	1.921	-0.079	0.026	0.017
0.137	25.790	-0.105	0.008	-0.089	0.243	0.187	0.447	0.237	1.587	1.883	1.911	-0.081	0.030	0.023
0.137	25.781	-0.106	0.007	-0.094	0.236	0.211	0.404	0.173	1.601	1.884	1.911	-0.078	0.031	0.019
0.137	25.790	-0.103	0.005	-0.098	0.229	0.276	0.379	0.140	1.624	1.887	1.914	-0.077	0.032	0.024
0.137	25.781	-0.105	0.004	-0.104	0.223	0.312	0.400	0.107	1.682	1.884	1.909	-0.076	0.034	0.023
0.137	25.787	-0.108	0.003	-0.109	0.219	0.330	0.425	0.082	1.729	1.883	1.908	-0.075	0.035	0.029
0.138	25.797	-0.110	0.003	-0.113	0.212	0.308	0.462	0.133	1.738	1.895	1.914	-0.070	0.036	0.033
0.138	25.797	-0.110	0.002	-0.115	0.209	0.279	0.460	0.204	1.762	1.887	1.910	-0.068	0.037	0.033
0.138	25.806	-0.110	0.001	-0.119	0.205	0.278	0.431	0.269	1.725	1.898	1.908	-0.067	0.037	0.035
0.138	25.818	-0.107	-0.001	-0.121	0.202	0.300	0.385	0.267	1.745	1.881	1.915	-0.063	0.039	0.037
0.138	25.821	-0.102	-0.002	-0.118	0.199	0.350	0.348	0.194	1.759	1.879	1.906	-0.064	0.041	0.041
0.139	25.806	-0.098	-0.005	-0.119	0.195	0.401	0.349	0.137	1.777	1.879	1.908	-0.060	0.046	0.042
0.139	25.806	-0.097	-0.006	-0.116	0.192	0.434	0.386	0.110	1.804	1.887	1.913	-0.057	0.042	0.044
0.139	25.815	-0.097	-0.011	-0.114	0.188	0.428	0.413	0.105	1.820	1.887	1.917	-0.055	0.043	0.047
0.139	25.815	-0.098	-0.013	-0.111	0.185	0.403	0.437	0.160	1.819	1.890	1.903	-0.053	0.044	0.049
0.139	25.809	-0.100	-0.017	-0.108	0.183	0.384	0.447	0.220	1.822	1.886	1.914	-0.048	0.044	0.049
0.140	25.812	-0.100	-0.022	-0.105	0.181	0.397	0.436	0.264	1.805	1.895	1.909	-0.047	0.045	0.051
0.140	25.803	-0.102	-0.025	-0.103	0.176	0.421	0.432	0.259	1.795	1.894	1.908	-0.043	0.044	0.050
0.140	25.827	-0.101	-0.032	-0.102	0.175	0.490	0.435	0.201	1.821	1.891	1.907	-0.041	0.043	0.051
0.140	25.812	-0.098	-0.037	-0.103	0.172	0.555	0.422	0.118	1.882	1.890	1.911	-0.038	0.042	0.053
0.140	25.812	-0.097	-0.039	-0.104	0.168	0.563	0.459	0.074	1.908	1.887	1.912	-0.035	0.041	0.052
0.141	25.821	-0.093	-0.045	-0.106	0.167	0.577	0.483	0.047	1.925	1.888	1.904	-0.032	0.042	0.053
0.141	25.833	-0.092	-0.051	-0.109	0.163	0.529	0.498	0.093	1.917	1.890	1.913	-0.030	0.040	0.054
0.141	25.793	-0.091	-0.055	-0.113	0.158	0.547	0.498	0.161	1.881	1.890	1.908	-0.027	0.038	0.053
0.141	25.848	-0.092	-0.061	-0.115	0.155	0.554	0.465	0.195	1.822	1.888	1.907	-0.025	0.038	0.053
0.141	25.848	-0.093	-0.065	-0.120	0.151	0.633	0.435	0.187	1.793	1.896	1.903	-0.023	0.036	0.054
0.142	25.812	-0.094	-0.069	-0.124	0.147	0.684	0.408	0.119	1.817	1.889	1.905	-0.021	0.035	0.054
0.142	25.839	-0.094	-0.075	-0.130	0.142	0.732	0.392	0.043	1.866	1.891	1.906	-0.019	0.034	0.056
0.142	25.824	-0.092	-0.077	-0.135	0.136	0.740	0.387	-0.005	1.917	1.890	1.912	-0.016	0.032	0.057
0.142	25.812	-0.089	-0.081	-0.140	0.132	0.716	0.366	-0.025	1.966	1.897	1.908	-0.014	0.031	0.056
0.142	25.830	-0.086	-0.082	-0.145	0.126	0.674	0.364	0.027	1.968	1.890	1.907	-0.014	0.027	0.061
0.143	25.827	-0.085	-0.084	-0.150	0.117	0.640	0.342	0.075	1.942	1.895	1.912	-0.010	0.025	0.066
0.143	25.842	-0.085	-0.083	-0.154	0.111	0.648	0.341	0.114	1.876	1.900	1.902	-0.009	0.026	0.066
0.143	25.824	-0.085	-0.082	-0.156	0.103	0.675	0.326	0.119	1.830	1.898	1.911	-0.006	0.025	0.069
0.143	25.864	-0.085	-0.084	-0.155	0.096	0.696	0.318	0.070	1.828	1.890	1.907	-0.004	0.020	0.070
0.143	25.830	-0.089	-0.083	-0.154	0.089	0.716	0.310	0.031	1.835	1.895	1.903	-0.007	0.020	0.073
0.144	25.845	-0.089	-0.087	-0.153	0.083	0.710	0.320	-0.007	1.883	1.890	1.903	-0.001	0.015	0.077
0.144	25.833	-0.089	-0.089	-0.149	0.078	0.671	0.313	-0.005	1.895	1.902	1.900	-0.002	0.015	0.080
0.144	25.821	-0.091	-0.092	-0.143	0.074	0.655	0.291	0.025	1.857	1.908	1.891	-0.003	0.013	0.081
0.144	25.821	-0.089	-0.094	-0.140	0.073	0.623	0.251	0.088	1.802	1.900	1.912	0.002	0.013	0.083
0.144	25.845	-0.087	-0.097	-0.133	0.072	0.630	0.221	0.131	1.773	1.906	1.909	0.002	0.013	0.085
0.145	25.836	-0.088	-0.100	-0.129	0.071	0.671	0.187	0.136	1.793	1.906	1.909	0.002	0.010	0.088
0.145	25.848	-0.090	-0.101	-0.123	0.075	0.717	0.181	0.107	1.828	1.908	1.907	0.003	0.010	0.090
0.145	25.830	-0.092	-0.103	-0.114	0.080	0.737	0.197	0.076	1.851	1.896	1.913	0.000	0.008	0.091
0.145	25.815	-0.094	-0.104	-0.108	0.083	0.719	0.205	0.060	1.863	1.901	1.912	0.001	0.009	0.091
0.145	25.845	-0.100	-0.106	-0.100	0.089	0.704	0.196	0.077	1.834	1.902	1.914	0.003	0.008	0.091
0.146	25.854	-0.098	-0.106	-0.092	0.096	0.702	0.184	0.099	1.805	1.900	1.908	0.002	0.006	0.091
0.146	25.836	-0.096	-0.108	-0.085	0.103	0.713	0.136	0.128	1.774	1.901	1.906	0.001	0.005	0.091
0.146	25.854	-0.100	-0.108	-0.078	0.112	0.725	0.120	0.123	1.804	1.904	1.903	-0.000	0.006	0.088
0.146	25.839	-0.096	-0.106	-0.070	0.121	0.792	0.096	0.112	1.854	1.905	1.909	-0.002	0.006	0.090
0.146	25.839	-0.101	-0.108	-0.060	0.129	0.808	0.070	0.107	1.883	1.906	1.907	-0.002	0.006	0.086
0.147	25.854	-0.100	-0.105	-0.052	0.134	0.808	0.098	0.123	1.902	1.907	1.905	-0.006	0.005	0.083
0.147	25.842	-0.104	-0.105	-0.040	0.142	0.799	0.120	0.185	1.860	1.906	1.908	-0.007	0.007	0.083
0.147	25.827	-0.107	-0.105	-0.031	0.147	0.756	0.114	0.252	1.818	1.900	1.909	-0.009	0.008	0.081
0.147	25.861	-0.112	-0.103	-0.020	0.150	0.731	0.122	0.307	1.803	1.903	1.908	-0.010	0.009	0.079
0.147	25.833	-0.115	-0.101	-0.010	0.152	0.736	0.100	0.340	1.786	1.901	1.909	-0.011	0.009	0.077
0.148	25.864	-0.115	-0.098	-0.001	0.154	0.753	0.066	0.325	1.850	1.904	1.909	-0.015	0.011	0.074
0.148	25.848	-0.116	-0.098	0.011	0.156	0.760	0.038	0.301	1.867	1.907	1.909	-0.018	0.012	0.075
0.148	25.851	-0.116	-0.095	0.020	0.152	0.779	0.034	0.255	1.888	1.900	1.909	-0.019	0.012	0.077
0.148	25.845	-0.116	-0.093	0.027	0.155	0.793	0.039	0.256	1.859	1.902	1.900	-0.021	0.017	0.075
0.148	25.842	-0.115	-0.089	0.031	0.150	0.776	0.038	0.301	1.841	1.903	1.908	-0.024	0.016	0.073
0.149	25.851	-0.117	-0.087	0.036	0.149	0.740	0.046	0.326	1.782	1.899	1.907	-0.025	0.016	0.074
0.149	25.848	-0.119	-0.086	0.036	0.148	0.716	0.041	0.353	1.757	1.906	1.902	-0.028	0.019	0.076
0.149	25.842	-0.121	-0.082	0.035	0.146	0.714	0.046	0.374	1.761	1.906	1.902	-0.032	0.022	0.073
0.149	25.833	-0.122	-0.080	0.034	0.144	0.753	0.040	0.378	1.774	1.908	1.904	-0.031	0.024	0.075
0.149	25.845	-0.123	-0.077	0.027	0.144	0.798	0.035	0.410	1.809	1.905	1.908	-0.033	0.025	0.077
0.150	25.815	-0.119	-0.074	0.019	0.144	0.860	0.060	0.428	1.858	1.909	1.904	-0.036	0.027	0.078
0.150	25.827	-0.120	-0.074	0.011	0.143	0.864	0.088	0.460	1.880	1.903	1.907	-0.038	0.029	0.079
0.150	25.848	-0.118	-0.072	0.002	0.147	0.862	0.119	0.468	1.878	1.909	1.906	-0.038	0.031	0.082
0.150	25.800	-0.117	-0.071	-0.010	0.148	0.865	0.156	0.482	1.881	1.902	1.905	-0.039	0.031	0.083
0.150	25.824	-0.117	-0.068	-0.020	0.152	0.849	0.154	0.474	1.887	1.906	1.906	-0.037	0.034	0.084
0.151	25.803	-0.116	-0.065	-0.032	0.155	0.876	0.142	0.435	1.895	1.910	1.909	-0.041	0.035	0.084
0.151	25.809	-0.117	-0.064	-0.043	0.159	0.912	0.116	0.392	1.924	1.906	1.912	-0.042	0.039	0.084
0.151	25.815	-0.114	-0.063	-0.054	0.162	0.962	0.093	0.381	1.954	1.907	1.908	-0.043	0.040	0.087
0.151	25.787	-0.113	-0.063	-0.065	0.167	0.992	0.073	0.403	1.969	1.903	1.908	-0.043	0.040	0.088
0.151	25.809	-0.113	-0.062	-0.076	0.170	1.003	0.094	0.437	1.949	1.909	1.905	-0.043	0.042	0.085
0.152	25.775	-0.110	-0.061	-0.087	0.173	1.008	0.113	0.478	1.899	1.908	1.913	-0.043	0.042	0.087
0.152	25.797	-0.108	-0.061	-0.095	0.176	0.985	0.125	0.520	1.876	1.908	1.906	-0.043	0.042	0.087
0.152	25.778	-0.109	-0.059	-0.103	0.182	0.975	0.128	0.522	1.859	1.906	1.911	-0.043	0.042	0.089
0.152	25.790	-0.107	-0.061	-0.110	0.184	0.998	0.130	0.501	1.847	1.901	1.905	-0.043	0.043	0.086
0.152	25.766	-0.106	-0.061	-0.115	0.188	1.034	0.130	0.495	1.868	1.907	1.899	-0.043	0.042	0.084
0.153	25.772	-0.106	-0.062	-0.117	0.190	1.060	0.116	0.501	1.858	1.900	1.907	-0.043	0.041	0.088
0.153	25.766	-0.107	-0.061	-0.120	0.197	1.079	0.114	0.537	1.842	1.906	1.906	-0.042	0.042	0.091
0.153	25.754	-0.107	-0.063	-0.122	0.200	1.064	0.120	0.566	1.811	1.904	1.906	-0.041	0.042	0.085
0.153	25.769	-0.107	-0.065	-0.120	0.204	1.048	0.126	0.591	1.765	1.903	1.907	-0.040	0.039	0.088
0.153	25.739	-0.107	-0.066	-0.120	0.211	1.038	0.129	0.580	1.760	1.896	1.910	-0.039	0.040	0.085
0.154	25.766	-0.106	-0.068	-0.119	0.219	1.060	0.128	0.495	1.748	1.908	1.910	-0.039	0.040	0.088
0.154	25.742	-0.106	-0.073	-0.118	0.224	1.106	0.128	0.471	1.740	1.903	1.912	-0.036	0.038	0.091
0.154	25.745	-0.103	-0.076	-0.117	0.233	1.188	0.131	0.501	1.753	1.898	1.908	-0.035	0.039	0.087
0.154	25.748	-0.105	-0.078	-0.112	0.240	1.223	0.157	0.562	1.709	1.904	1.910	-0.034	0.036	0.091
0.154	25.739	-0.107	-0.081	-0.110	0.252	1.241	0.160	0.679	1.688	1.912	1.906	-0.031	0.034	0.093
0.155	25.748	-0.109	-0.081	-0.106	0.262	1.226	0.169	0.738	1.652	1.913	1.909	-0.030	0.034	0.099
0.155	25.757	-0.112	-0.083	-0.105	0.273	1.205	0.159	0.747	1.671	1.919	1.911	-0.031	0.036	0.096
0.155	25.748	-0.112	-0.083	-0.100	0.284	1.169	0.148	0.696	1.700	1.904	1.911	-0.028	0.032	0.097
0.155	25.763	-0.113	-0.086	-0.101	0.293	1.162	0.122	0.608	1.753	1.898	1.903	-0.026	0.031	0.100
0.155	25.739	-0.110	-0.088	-0.099	0.305	1.177	0.102	0.578	1.770	1.896	1.906	-0.025	0.032	0.102
0.156	25.735	-0.112	-0.089	-0.097	0.315	1.173	0.096	0.568	1.740	1.906	1.905	-0.017	0.031	0.102
0.156	25.754	-0.106	-0.092	-0.095	0.323	1.212	0.112	0.648	1.662	1.907	1.902	-0.019	0.026	0.106
0.156	25.748	-0.105	-0.095	-0.095	0.331	1.225	0.113	0.744	1.575	1.908	1.909	-0.018	0.031	0.108
0.156	25.739	-0.108	-0.096	-0.092	0.339	1.220	0.130	0.813	1.523	1.907	1.907	-0.016	0.034	0.107
0.156	25.739	-0.108	-0.099	-0.090	0.345	1.213	0.102	0.861	1.555	1.905	1.912	-0.013	0.032	0.112
0.157	25.745	-0.112	-0.101	-0.090	0.349	1.174	0.080	0.840	1.615	1.919	1.905	-0.010	0.032	0.114
0.157	25.760	-0.112	-0.101	-0.088	0.353	1.143	0.065	0.816	1.709	1.910	1.914	-0.008	0.034	0.116
0.157	25.775	-0.114	-0.104	-0.087	0.354	1.104	0.040	0.780	1.734	1.910	1.913	-0.005	0.035	0.119
0.157	25.720	-0.112	-0.105	-0.084	0.352	1.116	0.050	0.812	1.751	1.912	1.908	-0.001	0.034	0.122
0.157	25.735	-0.112	-0.108	-0.082	0.349	1.118	0.041	0.845	1.728	1.923	1.913	0.001	0.037	0.120
0.158	25.763	-0.111	-0.109	-0.079	0.343	1.143	0.052	0.898	1.698	1.921	1.900	0.004	0.037	0.123
0.158	25.729	-0.111	-0.112	-0.075	0.333	1.114	0.034	0.938	1.682	1.924	1.909	0.007	0.037	0.125
0.158	25.735	-0.112	-0.115	-0.073	0.326	1.113	0.033	0.942	1.686	1.912	1.908	0.011	0.039	0.125
0.158	25.726	-0.115	-0.118	-0.067	0.313	1.080	0.028	0.909	1.706	1.908	1.907	0.015	0.037	0.126
0.158	25.714	-0.118	-0.123	-0.062	0.305	1.070	0.026	0.870	1.716	1.901	1.904	0.017	0.037	0.125
0.159	25.720	-0.122	-0.126	-0.055	0.292	1.065	0.052	0.805	1.741	1.910	1.911	0.020	0.037	0.127
0.159	25.717	-0.124	-0.130	-0.046	0.281	1.072	0.049	0.807	1.725	1.920	1.913	0.022	0.035	0.132
0.159	25.729	-0.126	-0.134	-0.038	0.271	1.093	0.062	0.874	1.704	1.918	1.917	0.026	0.036	0.128
0.159	25.699	-0.126	-0.139	-0.026	0.259	1.134	0.066	0.969	1.668	1.909	1.916	0.028	0.035	0.131
0.159	25.702	-0.127	-0.143	-0.012	0.248	1.167	0.038	1.088	1.682	1.912	1.917	0.029	0.032	0.129
0.160	25.711	-0.126	-0.148	0.002	0.238	1.190	0.026	1.124	1.699	1.915	1.906	0.030	0.031	0.128
0.160	25.684	-0.124	-0.153	0.020	0.229	1.220	0.029	1.095	1.770	1.922	1.912	0.033	0.027	0.126
0.160	25.699	-0.126	-0.154	0.040	0.220	1.222	0.047	1.030	1.850	1.916	1.907	0.032	0.026	0.126
0.160	25.717	-0.129	-0.154	0.060	0.214	1.224	0.081	0.977	1.864	1.927	1.918	0.033	0.019	0.124
0.160	25.708	-0.131	-0.157	0.077	0.205	1.224	0.099	0.949	1.860	1.925	1.912	0.039	0.019	0.122
0.161	25.708	-0.132	-0.157	0.100	0.201	1.226	0.108	0.953	1.828	1.913	1.905	0.038	0.018	0.120
0.161	25.696	-0.133	-0.158	0.119	0.196	1.234	0.098	0.971	1.778	1.916	1.911	0.038	0.011	0.117
0.161	25.696	-0.137	-0.160	0.137	0.193	1.254	0.069	0.993	1.761	1.914	1.910	0.040	0.008	0.115
0.161	25.687	-0.137	-0.162	0.152	0.191	1.268	0.060	0.981	1.757	1.919	1.916	0.038	0.004	0.112
0.161	25.693	-0.136	-0.164	0.165	0.191	1.282	0.076	0.932	1.789	1.911	1.918	0.041	0.002	0.111
0.162	25.684	-0.135	-0.167	0.179	0.190	1.288	0.112	0.868	1.815	1.926	1.917	0.046	-0.002	0.110
0.162	25.696	-0.134	-0.169	0.190	0.189	1.274	0.182	0.834	1.819	1.925	1.914	0.044	-0.005	0.106
0.162	25.684	-0.136	-0.171	0.198	0.189	1.278	0.214	0.819	1.802	1.923	1.910	0.044	-0.008	0.102
0.162	25.711	-0.139	-0.173	0.207	0.191	1.287	0.234	0.829	1.765	1.931	1.912	0.045	-0.011	0.102
0.162	25.699	-0.140	-0.174	0.210	0.190	1.324	0.207	0.862	1.730	1.927	1.912	0.045	-0.013	0.098
0.163	25.681	-0.148	-0.175	0.214	0.191	1.369	0.169	0.892	1.695	1.929	1.917	0.047	-0.015	0.095
0.163	25.687	-0.151	-0.176	0.215	0.192	1.373	0.144	0.894	1.704	1.924	1.921	0.048	-0.018	0.094
0.163	25.671	-0.156	-0.175	0.219	0.192	1.370	0.146	0.845	1.683	1.926	1.915	0.046	-0.020	0.092
0.163	25.677	-0.159	-0.177	0.219	0.194	1.342	0.138	0.780	1.719	1.931	1.917	0.044	-0.021	0.091
0.163	25.665	-0.160	-0.179	0.220	0.197	1.319	0.165	0.728	1.705	1.938	1.911	0.045	-0.023	0.089
0.164	25.681	-0.162	-0.179	0.219	0.201	1.334	0.203	0.729	1.684	1.930	1.912	0.043	-0.026	0.088
0.164	25.690	-0.163	-0.178	0.219	0.206	1.397	0.230	0.754	1.680	1.934	1.907	0.041	-0.027	0.083
0.164	25.668	-0.166	-0.179	0.218	0.214	1.462	0.231	0.802	1.663	1.942	1.913	0.038	-0.029	0.085
0.164	25.677	-0.168	-0.177	0.218	0.216	1.507	0.229	0.875	1.636	1.941	1.909	0.038	-0.033	0.083
0.164	25.662	-0.173	-0.175	0.217	0.222	1.529	0.226	0.930	1.646	1.937	1.917	0.036	-0.032	0.077
0.165	25.668	-0.177	-0.170	0.216	0.222	1.488	0.225	0.938	1.647	1.933	1.916	0.031	-0.034	0.073
0.165	25.656	-0.181	-0.169	0.215	0.223	1.427	0.232	0.910	1.668	1.937	1.914	0.031	-0.036	0.069
0.165	25.674	-0.183	-0.165	0.213	0.224	1.369	0.245	0.878	1.699	1.935	1.917	0.026	-0.036	0.069
0.165	25.662	-0.184	-0.161	0.210	0.223	1.342	0.274	0.870	1.706	1.938	1.922	0.024	-0.036	0.064
0.165	25.668	-0.184	-0.158	0.207	0.221	1.362	0.304	0.902	1.710	1.943	1.920	0.021	-0.039	0.061
0.166	25.677	-0.186	-0.153	0.201	0.220	1.383	0.328	0.997	1.692	1.931	1.923	0.016	-0.038	0.057
0.166	25.665	-0.189	-0.147	0.192	0.216	1.399	0.346	1.019	1.642	1.934	1.921	0.013	-0.037	0.051
0.166	25.681	-0.190	-0.144	0.184	0.213	1.401	0.363	1.028	1.619	1.930	1.921	0.011	-0.039	0.049
0.166	25.684	-0.193	-0.140	0.175	0.208	1.345	0.346	0.985	1.621	1.938	1.914	0.007	-0.038	0.046
0.166	25.668	-0.197	-0.134	0.165	0.203	1.284	0.367	0.928	1.623	1.936	1.920	0.006	-0.040	0.038
0.167	25.681	-0.202	-0.133	0.154	0.199	1.249	0.350	0.859	1.628	1.939	1.920	0.005	-0.039	0.039
0.167	25.684	-0.205	-0.126	0.143	0.194	1.202	0.369	0.840	1.631	1.932	1.921	0.001	-0.037	0.033
0.167	25.674	-0.207	-0.125	0.131	0.191	1.193	0.397	0.876	1.620	1.933	1.915	-0.000	-0.036	0.027
0.167	25.677	-0.206	-0.122	0.119	0.187	1.203	0.384	0.936	1.619	1.938	1.910	-0.002	-0.035	0.024
0.167	25.681	-0.205	-0.118	0.107	0.186	1.196	0.338	0.990	1.608	1.936	1.919	-0.004	-0.033	0.021
0.168	25.687	-0.204	-0.116	0.098	0.184	1.199	0.354	0.982	1.613	1.936	1.915	-0.006	-0.033	0.021
0.168	25.687	-0.204	-0.114	0.087	0.184	1.181	0.355	0.928	1.610	1.941	1.926	-0.006	-0.030	0.019
0.168	25.714	-0.202	-0.113	0.078	0.185	1.186	0.362	0.861	1.622	1.943	1.922	-0.009	-0.027	0.019
0.168	25.671	-0.202	-0.111	0.069	0.187	1.189	0.390	0.841	1.623	1.940	1.920	-0.010	-0.028	0.019
0.168	25.687	-0.200	-0.109	0.061	0.193	1.202	0.389	0.872	1.608	1.945	1.926	-0.012	-0.025	0.018
0.169	25.699	-0.200	-0.107	0.053	0.194	1.204	0.378	0.912	1.608	1.944	1.922	-0.012	-0.021	0.016
0.169	25.677	-0.199	-0.105	0.048	0.199	1.185	0.352	0.965	1.563	1.939	1.923	-0.013	-0.023	0.018
0.169	25.714	-0.196	-0.105	0.041	0.204	1.142	0.323	1.015	1.535	1.942	1.922	-0.015	-0.021	0.018
0.169	25.699	-0.194	-0.104	0.035	0.206	1.075	0.305	1.023	1.559	1.938	1.918	-0.015	-0.020	0.019
0.169	25.696	-0.191	-0.104	0.032	0.208	1.032	0.294	0.971	1.571	1.945	1.914	-0.018	-0.021	0.023
0.170	25.702	-0.188	-0.104	0.028	0.210	1.002	0.286	0.896	1.569	1.939	1.915	-0.019	-0.018	0.018
0.170	25.708	-0.185	-0.104	0.025	0.209	1.003	0.301	0.848	1.553	1.944	1.921	-0.024	-0.019	0.022
0.170	25.702	-0.183	-0.103	0.023	0.202	1.008	0.303	0.821	1.532	1.946	1.925	-0.021	-0.020	0.027
0.170	25.693	-0.181	-0.103	0.018	0.203	1.009	0.296	0.860	1.531	1.950	1.925	-0.021	-0.019	0.025
0.170	25.693	-0.180	-0.102	0.016	0.196	0.986	0.284	0.932	1.577	1.944	1.919	-0.023	-0.019	0.027
0.171	25.684	-0.179	-0.101	0.012	0.190	0.936	0.271	1.008	1.684	1.947	1.929	-0.023	-0.021	0.029
0.171	25.690	-0.178	-0.099	0.010	0.182	0.871	0.276	1.041	1.802	1.951	1.925	-0.026	-0.020	0.030
0.171	25.690	-0.175	-0.096	0.006	0.174	0.832	0.289	1.063	1.918	1.947	1.926	-0.029	-0.016	0.033
0.171	25.681	-0.172	-0.093	0.005	0.165	0.800	0.303	1.026	1.950	1.943	1.937	-0.025	-0.022	0.033
0.171	25.687	-0.167	-0.093	0.002	0.154	0.822	0.300	0.987	1.906	1.943	1.925	-0.026	-0.020	0.038
0.172	25.671	-0.161	-0.092	-0.001	0.143	0.852	0.295	0.941	1.781	1.953	1.930	-0.027	-0.018	0.040
0.172	25.681	-0.159	-0.093	-0.003	0.132	0.893	0.277	0.876	1.644	1.942	1.931	-0.027	-0.017	0.038
0.172	25.684	-0.156	-0.090	-0.006	0.119	0.920	0.255	1.011	1.734	1.959	1.929	-0.027	-0.016	0.043
0.172	25.681	-0.154	-0.089	-0.009	0.107	0.922	0.244	0.902	1.721	1.953	1.935	-0.023	-0.015	0.044
0.172	25.665	-0.156	-0.086	-0.012	0.096	0.921	0.265	0.210	1.579	1.952	1.933	-0.024	-0.013	0.046
0.173	25.665	-0.153	-0.082	-0.012	0.083	0.886	0.272	-0.206	1.766	1.946	1.929	-0.025	-0.009	0.048
0.173	25.671	-0.151	-0.079	-0.015	0.071	0.856	0.306	0.094	2.143	1.950	1.929	-0.023	-0.010	0.050
0.173	25.665	-0.145	-0.079	-0.016	0.061	0.811	0.295	0.767	2.047	1.948	1.941	-0.025	-0.007	0.050
0.173	25.662	-0.140	-0.080	-0.021	0.051	0.811	0.291	1.437	1.550	1.953	1.931	-0.023	-0.005	0.054
0.173	25.653	-0.134	-0.081	-0.021	0.042	0.795	0.284	1.685	1.076	1.957	1.938	-0.022	-0.005	0.053
0.174	25.665	-0.130	-0.084	-0.025	0.033	0.856	0.278	1.422	1.055	1.944	1.931	-0.022	-0.002	0.055
0.174	25.656	-0.126	-0.085	-0.027	0.026	0.917	0.298	0.901	1.311	1.955	1.937	-0.021	0.001	0.059
0.174	25.656	-0.120	-0.086	-0.029	0.019	0.960	0.327	0.076	1.567	1.958	1.935	-0.022	0.002	0.059
0.174	25.656	-0.118	-0.090	-0.032	0.014	0.951	0.350	-0.704	1.949	1.952	1.924	-0.023	0.005	0.058
0.174	25.659	-0.117	-0.092	-0.035	0.006	0.932	0.383	-0.667	2.203	1.957	1.928	-0.022	0.009	0.059
0.175	25.662	-0.114	-0.094	-0.040	-0.000	0.889	0.410	-0.101	2.129	1.961	1.932	-0.023	0.010	0.059
0.175	25.656	-0.109	-0.094	-0.044	-0.005	0.844	0.414	1.088	1.729	1.960	1.931	-0.025	0.010	0.063
0.175	25.653	-0.103	-0.096	-0.047	-0.011	0.840	0.411	1.991	1.447	1.956	1.928	-0.024	0.010	0.066
0.175	25.671	-0.098	-0.098	-0.052	-0.021	0.844	0.400	1.986	1.358	1.966	1.929	-0.027	0.014	0.064
0.175	25.665	-0.089	-0.099	-0.053	-0.024	0.858	0.428	1.237	1.525	1.961	1.931	-0.026	0.013	0.068
0.176	25.659	-0.082	-0.101	-0.056	-0.029	0.880	0.469	0.118	1.845	1.965	1.938	-0.031	0.013	0.068
0.176	25.677	-0.078	-0.103	-0.060	-0.030	0.904	0.524	-0.742	2.131	1.954	1.922	-0.031	0.017	0.069
0.176	25.662	-0.074	-0.104	-0.064	-0.033	0.929	0.586	-0.924	2.290	1.961	1.934	-0.026	0.014	0.071
0.176	25.665	-0.069	-0.104	-0.069	-0.035	0.989	0.574	-0.447	2.153	1.970	1.931	-0.033	0.014	0.075
0.176	25.668	-0.069	-0.105	-0.069	-0.035	0.974	0.573	0.505	1.762	1.952	1.934	-0.033	0.017	0.076
0.177	25.662	-0.063	-0.103	-0.068	-0.032	1.004	0.556	1.451	1.295	1.956	1.942	-0.034	0.018	0.079
0.177	25.681	-0.056	-0.106	-0.069	-0.032	1.004	0.530	1.830	1.042	1.962	1.939	-0.036	0.025	0.082
0.177	25.650	-0.049	-0.105	-0.066	-0.029	0.987	0.556	1.383	1.031	1.965	1.942	-0.034	0.021	0.083
0.177	25.665	-0.043	-0.104	-0.064	-0.024	0.963	0.602	0.270	1.269	1.963	1.935	-0.035	0.022	0.090
0.177	25.626	-0.035	-0.101	-0.059	-0.018	0.940	0.652	-0.716	1.645	1.968	1.942	-0.035	0.024	0.094
0.178	25.656	-0.030	-0.098	-0.054	-0.010	0.917	0.688	-1.063	1.972	1.981	1.937	-0.035	0.025	0.098
0.178	25.650	-0.026	-0.095	-0.046	-0.001	0.897	0.707	-0.674	1.957	1.968	1.934	-0.034	0.025	0.102
0.178	25.644	-0.025	-0.095	-0.039	0.013	0.928	0.687	0.244	1.689	1.976	1.937	-0.035	0.026	0.102
0.178	25.647	-0.028	-0.093	-0.033	0.026	0.957	0.694	1.069	1.288	1.978	1.944	-0.035	0.026	0.103
0.178	25.641	-0.025	-0.092	-0.022	0.039	0.993	0.689	1.356	1.083	1.974	1.938	-0.032	0.025	0.106
0.179	25.638	-0.023	-0.091	-0.013	0.053	1.016	0.732	1.035	1.139	1.972	1.937	-0.033	0.026	0.106
0.179	25.644	-0.021	-0.093	-0.002	0.069	0.977	0.755	0.409	1.513	1.963	1.942	-0.033	0.026	0.103
0.179	25.635	-0.018	-0.093	0.007	0.081	0.956	0.783	-0.168	2.000	1.969	1.939	-0.032	0.024	0.105
0.179	25.610	-0.010	-0.096	0.019	0.098	0.914	0.780	-0.408	2.334	1.975	1.940	-0.033	0.022	0.101
0.179	25.623	-0.007	-0.098	0.026	0.113	0.910	0.783	-0.170	2.368	1.980	1.947	-0.034	0.021	0.096
0.180	25.629	-0.003	-0.100	0.037	0.128	0.912	0.775	0.446	2.072	1.980	1.951	-0.036	0.020	0.096
0.180	25.616	-0.006	-0.100	0.049	0.142	0.931	0.781	1.001	1.545	1.980	1.944	-0.035	0.017	0.094
0.180	25.620	-0.006	-0.102	0.058	0.156	0.957	0.779	1.104	1.148	1.982	1.944	-0.038	0.017	0.090
0.180	25.610	-0.011	-0.100	0.068	0.167	0.991	0.790	0.696	1.009	1.966	1.942	-0.040	0.012	0.086
0.180	25.601	-0.014	-0.100	0.075	0.179	1.007	0.801	0.071	1.183	1.989	1.942	-0.040	0.010	0.082
0.181	25.659	-0.013	-0.101	0.080	0.187	1.018	0.786	-0.439	1.583	1.982	1.943	-0.044	0.010	0.078
0.181	25.607	-0.012	-0.105	0.085	0.198	0.989	0.749	-0.570	1.923	1.975	1.942	-0.045	0.008	0.075
0.181	25.607	-0.008	-0.108	0.085	0.204	0.967	0.719	-0.214	2.000	1.978	1.949	-0.044	0.005	0.072
0.181	25.607	-0.008	-0.112	0.086	0.211	0.930	0.683	0.469	1.811	1.990	1.947	-0.047	0.004	0.069
0.181	25.623	-0.006	-0.114	0.088	0.217	0.911	0.668	0.999	1.447	1.984	1.948	-0.049	0.003	0.066
0.182	25.616	-0.010	-0.114	0.085	0.222	0.916	0.656	1.113	1.210	1.988	1.950	-0.049	0.002	0.062
0.182	25.592	-0.015	-0.114	0.088	0.228	0.945	0.644	0.734	1.196	1.985	1.946	-0.052	0.004	0.063
0.182	25.607	-0.023	-0.114	0.085	0.236	0.981	0.644	0.156	1.405	1.997	1.950	-0.055	0.001	0.062
0.182	25.607	-0.029	-0.112	0.086	0.239	1.022	0.606	-0.324	1.760	1.996	1.947	-0.057	0.001	0.061
0.182	25.589	-0.033	-0.110	0.083	0.245	1.040	0.578	-0.452	2.046	1.991	1.951	-0.058	-0.001	0.061
0.183	25.616	-0.032	-0.105	0.081	0.250	1.013	0.547	-0.165	2.141	1.997	1.949	-0.057	-0.000	0.059
0.183	25.613	-0.030	-0.103	0.074	0.254	0.954	0.537	0.317	1.947	1.995	1.946	-0.059	-0.001	0.059
0.183	25.595	-0.027	-0.100	0.068	0.257	0.893	0.543	0.710	1.631	1.994	1.953	-0.060	-0.001	0.057
0.183	25.595	-0.025	-0.094	0.063	0.259	0.836	0.537	0.786	1.366	2.008	1.953	-0.059	-0.001	0.054
0.183	25.604	-0.028	-0.092	0.061	0.264	0.825	0.570	0.483	1.314	2.003	1.949	-0.065	-0.002	0.053
0.184	25.598	-0.033	-0.090	0.055	0.268	0.826	0.563	0.054	1.495	1.995	1.955	-0.068	-0.002	0.049
0.184	25.598	-0.041	-0.087	0.055	0.271	0.837	0.535	-0.259	1.771	1.997	1.955	-0.070	-0.003	0.047
0.184	25.595	-0.049	-0.084	0.056	0.277	0.821	0.502	-0.320	1.985	1.990	1.958	-0.073	-0.005	0.043
0.184	25.592	-0.054	-0.081	0.058	0.283	0.823	0.453	-0.048	1.983	1.996	1.960	-0.077	-0.007	0.042
0.184	25.592	-0.054	-0.080	0.062	0.287	0.809	0.417	0.352	1.756	1.997	1.959	-0.079	-0.009	0.040
0.185	25.589	-0.059	-0.078	0.069	0.293	0.790	0.416	0.660	1.464	2.004	1.962	-0.083	-0.010	0.034
0.185	25.589	-0.059	-0.077	0.074	0.298	0.766	0.411	0.694	1.313	2.001	1.955	-0.087	-0.012	0.030
0.185	25.577	-0.059	-0.074	0.082	0.305	0.772	0.438	0.436	1.345	2.000	1.955	-0.090	-0.013	0.024
0.185	25.571	-0.061	-0.074	0.091	0.311	0.703	0.458	0.001	1.557	1.999	1.966	-0.094	-0.014	0.018
0.185	25.577	-0.064	-0.073	0.097	0.318	0.667	0.460	-0.298	1.854	2.000	1.970	-0.098	-0.014	0.020
0.186	25.598	-0.069	-0.072	0.107	0.324	0.608	0.436	-0.304	2.033	1.989	1.960	-0.098	-0.016	0.016
0.186	25.592	-0.071	-0.073	0.116	0.329	0.563	0.419	-0.069	1.973	2.001	1.959	-0.103	-0.015	0.013
0.186	25.565	-0.077	-0.074	0.128	0.334	0.545	0.385	0.225	1.699	2.000	1.964	-0.108	-0.016	0.011
0.186	25.577	-0.077	-0.075	0.140	0.334	0.577	0.371	0.398	1.395	2.014	1.956	-0.109	-0.021	0.012
0.186	25.589	-0.075	-0.076	0.152	0.335	0.630	0.373	0.307	1.209	2.007	1.962	-0.111	-0.017	0.011
0.187	25.583	-0.075	-0.076	0.163	0.333	0.628	0.401	0.063	1.198	2.000	1.962	-0.114	-0.018	0.008
0.187	25.589	-0.071	-0.075	0.171	0.328	0.655	0.454	-0.303	1.365	2.002	1.964	-0.114	-0.020	0.009
0.187	25.592	-0.074	-0.074	0.174	0.320	0.592	0.472	-0.524	1.671	2.006	1.967	-0.118	-0.019	0.009
0.187	25.595	-0.076	-0.072	0.175	0.312	0.555	0.505	-0.388	1.959	2.005	1.966	-0.120	-0.019	0.011
0.187	25.580	-0.080	-0.070	0.173	0.298	0.482	0.533	-0.124	2.011	2.000	1.969	-0.118	-0.018	0.008
0.188	25.580	-0.084	-0.067	0.170	0.280	0.459	0.534	-0.052	1.702	2.001	1.964	-0.120	-0.019	0.010
0.188	25.586	-0.089	-0.064	0.165	0.260	0.499	0.543	-0.034	1.543	2.009	1.968	-0.122	-0.017	0.010
0.188	25.595	-0.091	-0.062	0.160	0.239	0.549	0.568	0.209	1.622	2.013	1.968	-0.121	-0.017	0.010
0.188	25.583	-0.091	-0.059	0.155	0.217	0.574	0.626	0.404	1.640	2.010	1.966	-0.124	-0.017	0.012
0.188	25.586	-0.088	-0.058	0.148	0.194	0.594	0.694	0.446	1.491	2.016	1.974	-0.119	-0.016	0.013
0.189	25.601	-0.088	-0.055	0.139	0.171	0.604	0.754	0.226	1.334	2.007	1.976	-0.122	-0.016	0.014
0.189	25.601	-0.084	-0.055	0.129	0.152	0.597	0.736	-0.050	1.390	2.017	1.966	-0.122	-0.015	0.015
0.189	25.592	-0.083	-0.052	0.114	0.132	0.578	0.747	-0.192	1.516	2.005	1.973	-0.121	-0.012	0.016
0.189	25.607	-0.085	-0.050	0.101	0.117	0.587	0.746	-0.245	1.538	2.012	1.970	-0.122	-0.013	0.017
0.189	25.577	-0.089	-0.051	0.089	0.103	0.609	0.774	-0.311	1.524	2.017	1.971	-0.120	-0.013	0.021
0.190	25.592	-0.092	-0.050	0.075	0.090	0.656	0.840	-0.122	1.538	2.019	1.978	-0.119	-0.012	0.019
0.190	25.586	-0.095	-0.051	0.062	0.079	0.717	0.905	0.126	1.440	2.020	1.979	-0.118	-0.010	0.021
0.190	25.583	-0.095	-0.052	0.053	0.069	0.747	0.956	0.327	1.193	2.013	1.972	-0.116	-0.010	0.024
0.190	25.589	-0.092	-0.055	0.041	0.063	0.799	0.975	0.278	1.105	2.015	1.972	-0.113	-0.009	0.025
0.190	25.586	-0.089	-0.057	0.031	0.057	0.808	0.965	-0.054	1.208	2.020	1.975	-0.113	-0.006	0.027
0.191	25.592	-0.084	-0.060	0.023	0.054	0.838	0.923	-0.452	1.439	2.019	1.972	-0.110	-0.007	0.030
0.191	25.613	-0.080	-0.064	0.014	0.054	0.880	0.885	-0.625	1.658	2.017	1.976	-0.110	-0.003	0.032
0.191	25.592	-0.080	-0.067	0.009	0.052	0.892	0.881	-0.369	1.738	2.013	1.973	-0.106	-0.005	0.037
0.191	25.571	-0.081	-0.070	0.005	0.054	0.900	0.902	0.210	1.603	2.004	1.972	-0.103	-0.004	0.039
0.191	25.577	-0.085	-0.074	0.002	0.055	0.917	0.967	0.852	1.416	2.009	1.976	-0.102	-0.003	0.045
0.192	25.583	-0.088	-0.076	0.001	0.058	0.950	1.025	1.208	1.208	2.012	1.984	-0.099	-0.006	0.052
0.192	25.589	-0.088	-0.080	0.000	0.061	0.951	1.025	1.082	1.190	2.016	1.981	-0.098	-0.002	0.055
0.192	25.562	-0.086	-0.081	0.002	0.058	0.970	0.986	0.554	1.408	2.025	1.985	-0.095	-0.003	0.059
0.192	25.543	-0.081	-0.084	0.004	0.056	0.974	0.922	-0.132	1.632	2.026	1.979	-0.092	-0.004	0.065
0.192	25.558	-0.073	-0.085	0.009	0.052	0.979	0.884	-0.534	1.678	2.022	1.977	-0.088	-0.004	0.071
0.193	25.543	-0.068	-0.087	0.015	0.048	0.940	0.881	-0.364	1.518	2.019	1.985	-0.088	-0.008	0.077
0.193	25.537	-0.066	-0.090	0.021	0.042	0.919	0.910	0.265	1.173	2.020	1.984	-0.088	-0.008	0.081
0.193	25.540	-0.067	-0.090	0.026	0.036	0.888	0.965	0.924	0.845	2.022	1.980	-0.087	-0.009	0.087
0.193	25.549	-0.072	-0.090	0.031	0.030	0.882	1.015	1.163	0.741	2.028	1.984	-0.082	-0.012	0.091
0.193	25.558	-0.077	-0.091	0.035	0.028	0.876	0.985	0.837	0.810	2.025	1.986	-0.082	-0.015	0.100
0.194	25.546	-0.079	-0.093	0.040	0.024	0.893	0.916	0.071	1.056	2.018	1.982	-0.079	-0.016	0.100
0.194	25.565	-0.081	-0.094	0.046	0.027	0.895	0.820	-0.574	1.362	2.014	1.985	-0.075	-0.019	0.104
0.194	25.537	-0.075	-0.094	0.048	0.030	0.897	0.739	-0.710	1.499	2.020	1.980	-0.073	-0.022	0.109
0.194	25.546	-0.069	-0.097	0.049	0.038	0.875	0.734	-0.257	1.414	2.012	1.985	-0.066	-0.027	0.113
0.194	25.537	-0.061	-0.098	0.051	0.050	0.828	0.790	0.470	1.189	2.017	1.980	-0.064	-0.027	0.114
0.195	25.531	-0.054	-0.101	0.052	0.061	0.811	0.863	0.973	0.986	2.019	1.983	-0.061	-0.029	0.118
0.195	25.528	-0.053	-0.104	0.055	0.077	0.801	0.905	0.950	0.935	2.022	1.985	-0.056	-0.030	0.119
0.195	25.528	-0.055	-0.107	0.059	0.092	0.799	0.836	0.444	1.013	2.019	1.976	-0.051	-0.031	0.120
0.195	25.519	-0.060	-0.107	0.067	0.110	0.824	0.756	-0.227	1.149	2.030	1.983	-0.046	-0.033	0.122
0.195	25.510	-0.064	-0.110	0.073	0.128	0.819	0.668	-0.619	1.202	2.027	1.987	-0.042	-0.035	0.123
0.196	25.525	-0.070	-0.112	0.081	0.149	0.828	0.603	-0.482	1.157	2.022	1.984	-0.035	-0.034	0.117
0.196	25.534	-0.068	-0.115	0.092	0.168	0.799	0.591	0.088	0.999	2.016	1.991	-0.030	-0.036	0.120
0.196	25.507	-0.065	-0.118	0.105	0.191	0.790	0.627	0.749	0.889	2.023	1.983	-0.029	-0.034	0.117
0.196	25.500	-0.063	-0.122	0.115	0.207	0.736	0.701	1.059	0.852	2.023	1.985	-0.020	-0.032	0.113
0.196	25.510	-0.057	-0.124	0.131	0.220	0.728	0.735	0.924	0.945	2.022	1.983	-0.015	-0.035	0.114
0.197	25.485	-0.057	-0.129	0.147	0.233	0.715	0.698	0.431	1.098	2.021	1.984	-0.012	-0.033	0.108
0.197	25.494	-0.055	-0.131	0.165	0.235	0.727	0.650	-0.106	1.198	2.020	1.990	-0.010	-0.031	0.107
0.197	25.510	-0.059	-0.137	0.184	0.238	0.751	0.584	-0.357	1.159	2.016	1.984	-0.006	-0.029	0.108
0.197	25.504	-0.063	-0.141	0.201	0.236	0.783	0.563	-0.194	1.027	2.023	1.991	-0.002	-0.030	0.104
0.197	25.513	-0.066	-0.145	0.218	0.232	0.788	0.591	0.284	0.874	2.018	1.986	-0.002	-0.027	0.100
0.198	25.470	-0.068	-0.146	0.235	0.226	0.759	0.653	0.680	0.839	2.021	1.984	-0.001	-0.031	0.099
0.198	25.479	-0.067	-0.149	0.248	0.217	0.754	0.705	0.714	0.886	2.019	1.987	0.000	-0.030	0.098
0.198	25.500	-0.063	-0.151	0.257	0.212	0.767	0.723	0.372	0.972	2.024	1.977	-0.002	-0.028	0.096
0.198	25.470	-0.061	-0.151	0.268	0.206	0.802	0.675	-0.146	0.987	2.021	1.983	-0.002	-0.032	0.093
0.198	25.485	-0.057	-0.151	0.276	0.203	0.866	0.604	-0.469	0.921	2.029	1.987	-0.005	-0.035	0.093
0.199	25.485	-0.057	-0.150	0.282	0.202	0.900	0.562	-0.387	0.849	2.021	1.990	-0.007	-0.038	0.090
0.199	25.470	-0.057	-0.149	0.287	0.201	0.901	0.559	0.015	0.814	2.025	1.984	-0.007	-0.043	0.088
0.199	25.485	-0.061	-0.148	0.293	0.203	0.858	0.590	0.536	0.866	2.022	1.989	-0.011	-0.046	0.082
0.199	25.485	-0.065	-0.149	0.297	0.207	0.828	0.641	0.864	0.975	2.025	1.993	-0.011	-0.052	0.078
0.199	25.507	-0.068	-0.145	0.299	0.209	0.835	0.674	0.907	1.135	2.022	1.991	-0.010	-0.056	0.076
0.200	25.479	-0.068	-0.142	0.302	0.215	0.844	0.687	0.686	1.185	2.026	1.983	-0.015	-0.062	0.072
0.200	25.485	-0.067	-0.138	0.302	0.221	0.901	0.680	0.371	1.128	2.024	1.991	-0.018	-0.066	0.066
0.200	25.494	-0.064	-0.136	0.302	0.228	0.972	0.631	0.156	0.995	2.028	1.992	-0.019	-0.071	0.065
0.200	25.464	-0.060	-0.133	0.300	0.235	1.025	0.613	0.158	0.882	2.022	1.984	-0.021	-0.076	0.062
0.200	25.479	-0.059	-0.127	0.298	0.241	1.037	0.623	0.330	0.829	2.028	1.981	-0.022	-0.080	0.060
0.201	25.473	-0.058	-0.123	0.297	0.248	1.032	0.674	0.511	0.860	2.024	1.985	-0.022	-0.084	0.058
0.201	25.494	-0.063	-0.119	0.297	0.254	1.018	0.720	0.601	0.883	2.027	1.980	-0.023	-0.086	0.055
0.201	25.467	-0.068	-0.115	0.295	0.258	1.003	0.762	0.499	0.854	2.030	1.982	-0.024	-0.090	0.056
0.201	25.473	-0.070	-0.111	0.296	0.266	1.025	0.742	0.238	0.759	2.018	1.990	-0.025	-0.092	0.053
0.201	25.461	-0.070	-0.109	0.296	0.272	1.074	0.689	-0.033	0.586	2.031	1.981	-0.026	-0.093	0.051
0.202	25.488	-0.072	-0.106	0.295	0.278	1.160	0.659	-0.121	0.448	2.030	1.990	-0.027	-0.094	0.054
0.202	25.476	-0.067	-0.102	0.293	0.288	1.212	0.646	0.011	0.374	2.027	1.994	-0.027	-0.094	0.054
0.202	25.488	-0.063	-0.102	0.290	0.298	1.205	0.699	0.219	0.456	2.027	1.983	-0.029	-0.092	0.055
0.202	25.488	-0.060	-0.101	0.285	0.306	1.173	0.757	0.374	0.594	2.024	1.984	-0.030	-0.095	0.054
0.202	25.494	-0.061	-0.100	0.278	0.316	1.126	0.798	0.409	0.767	2.033	1.994	-0.032	-0.094	0.059
0.203	25.491	-0.063	-0.098	0.268	0.322	1.099	0.792	0.335	0.869	2.032	1.989	-0.035	-0.090	0.060
0.203	25.507	-0.065	-0.096	0.258	0.332	1.105	0.769	0.225	0.843	2.042	1.988	-0.035	-0.089	0.062
0.203	25.504	-0.069	-0.094	0.246	0.339	1.120	0.715	0.147	0.704	2.031	1.995	-0.036	-0.089	0.064
0.203	25.491	-0.073	-0.093	0.231	0.343	1.197	0.687	0.220	0.603	2.030	1.995	-0.040	-0.085	0.066
0.203	25.516	-0.071	-0.091	0.221	0.345	1.231	0.693	0.393	0.558	2.029	1.987	-0.043	-0.083	0.068
0.204	25.500	-0.067	-0.093	0.208	0.346	1.231	0.727	0.601	0.622	2.034	1.988	-0.042	-0.077	0.071
0.204	25.531	-0.062	-0.091	0.200	0.343	1.209	0.743	0.716	0.742	2.036	1.989	-0.048	-0.074	0.074
0.204	25.525	-0.057	-0.090	0.189	0.339	1.168	0.749	0.699	0.829	2.029	1.980	-0.050	-0.070	0.075
0.204	25.519	-0.058	-0.086	0.180	0.335	1.127	0.713	0.533	0.839	2.024	1.992	-0.052	-0.065	0.077
0.204	25.528	-0.059	-0.083	0.174	0.330	1.079	0.630	0.368	0.708	2.019	1.998	-0.058	-0.060	0.080
0.205	25.519	-0.062	-0.081	0.166	0.324	1.082	0.575	0.266	0.525	2.032	1.995	-0.054	-0.056	0.080
0.205	25.531	-0.064	-0.078	0.160	0.320	1.087	0.514	0.303	0.431	2.031	1.987	-0.053	-0.052	0.082
0.205	25.519	-0.069	-0.078	0.153	0.316	1.113	0.530	0.392	0.438	2.035	1.990	-0.058	-0.046	0.085
0.205	25.522	-0.068	-0.073	0.148	0.313	1.092	0.536	0.450	0.490	2.021	1.988	-0.057	-0.039	0.084
0.205	25.531	-0.067	-0.069	0.140	0.311	1.089	0.585	0.423	0.595	2.032	1.993	-0.058	-0.033	0.084
0.206	25.519	-0.060	-0.069	0.135	0.311	1.070	0.565	0.303	0.635	2.035	1.986	-0.060	-0.027	0.089
0.206	25.537	-0.058	-0.067	0.130	0.312	1.035	0.475	0.209	0.650	2.037	1.985	-0.059	-0.019	0.090
0.206	25.531	-0.053	-0.064	0.122	0.314	0.982	0.390	0.130	0.606	2.032	1.984	-0.059	-0.015	0.092
0.206	25.522	-0.055	-0.066	0.118	0.321	0.949	0.324	0.149	0.540	2.024	1.994	-0.061	-0.008	0.097
0.206	25.522	-0.059	-0.064	0.111	0.327	0.922	0.317	0.241	0.487	2.033	1.986	-0.060	-0.002	0.097
0.207	25.531	-0.060	-0.065	0.103	0.337	0.947	0.354	0.338	0.498	2.038	1.984	-0.061	0.002	0.101
0.207	25.537	-0.067	-0.066	0.096	0.346	0.951	0.425	0.447	0.529	2.031	1.992	-0.058	0.009	0.105
0.207	25.525	-0.063	-0.066	0.085	0.353	0.947	0.497	0.454	0.590	2.032	1.992	-0.060	0.014	0.109
0.207	25.522	-0.061	-0.066	0.074	0.360	0.937	0.501	0.355	0.644	2.042	1.993	-0.061	0.015	0.113
0.207	25.507	-0.055	-0.067	0.064	0.366	0.914	0.476	0.242	0.638	2.037	1.986	-0.060	0.019	0.114
0.208	25.513	-0.050	-0.069	0.053	0.368	0.871	0.421	0.119	0.601	2.037	1.990	-0.062	0.022	0.121
0.208	25.525	-0.047	-0.068	0.045	0.370	0.866	0.379	0.182	0.533	2.026	1.986	-0.061	0.022	0.127
0.208	25.510	-0.046	-0.070	0.038	0.368	0.893	0.378	0.319	0.494	2.038	1.990	-0.062	0.027	0.127
0.208	25.525	-0.047	-0.071	0.031	0.358	0.908	0.432	0.457	0.536	2.035	1.982	-0.062	0.028	0.132
0.208	25.519	-0.050	-0.072	0.023	0.345	0.942	0.470	0.510	0.599	2.033	1.992	-0.064	0.028	0.135
0.209	25.516	-0.052	-0.074	0.018	0.331	0.954	0.499	0.386	0.644	2.032	1.992	-0.066	0.028	0.139
0.209	25.519	-0.053	-0.075	0.011	0.310	0.948	0.487	0.230	0.681	2.030	1.987	-0.061	0.026	0.142
0.209	25.525	-0.049	-0.075	0.007	0.285	0.925	0.444	0.136	0.627	2.030	1.990	-0.067	0.027	0.146
0.209	25.510	-0.046	-0.078	0.003	0.258	0.883	0.405	0.173	0.543	2.043	1.988	-0.069	0.026	0.148
0.209	25.516	-0.039	-0.079	-0.003	0.230	0.888	0.389	0.310	0.462	2.037	1.991	-0.066	0.024	0.152
0.210	25.510	-0.033	-0.083	-0.005	0.203	0.934	0.399	0.452	0.446	2.039	1.984	-0.069	0.023	0.161
0.210	25.525	-0.030	-0.083	-0.009	0.176	0.981	0.445	0.569	0.499	2.039	1.992	-0.069	0.019	0.163
0.210	25.519	-0.029	-0.085	-0.009	0.153	1.013	0.481	0.619	0.606	2.030	1.994	-0.068	0.017	0.169
0.210	25.513	-0.028	-0.086	-0.010	0.135	1.026	0.465	0.540	0.710	2.030	1.997	-0.070	0.013	0.176
0.210	25.519	-0.029	-0.089	-0.008	0.120	1.017	0.466	0.428	0.791	2.029	1.992	-0.068	0.009	0.177
0.211	25.528	-0.029	-0.091	-0.003	0.114	0.996	0.431	0.341	0.826	2.034	1.990	-0.066	0.007	0.182
0.211	25.513	-0.030	-0.094	0.005	0.112	1.017	0.425	0.302	0.785	2.027	1.990	-0.067	0.001	0.185
0.211	25.519	-0.025	-0.095	0.011	0.112	1.058	0.421	0.389	0.677	2.039	1.988	-0.069	-0.003	0.187
0.211	25.516	-0.023	-0.095	0.019	0.116	1.106	0.487	0.530	0.598	2.026	1.984	-0.067	-0.008	0.190
0.211	25.525	-0.018	-0.095	0.029	0.123	1.153	0.524	0.614	0.561	2.042	1.990	-0.068	-0.013	0.195
0.212	25.531	-0.017	-0.094	0.040	0.133	1.185	0.585	0.620	0.582	2.031	1.990	-0.065	-0.019	0.193
0.212	25.513	-0.017	-0.093	0.052	0.141	1.191	0.589	0.535	0.638	2.036	1.995	-0.065	-0.024	0.195
0.212	25.528	-0.017	-0.092	0.064	0.148	1.191	0.572	0.454	0.669	2.034	1.985	-0.065	-0.031	0.198
0.212	25.537	-0.019	-0.091	0.078	0.156	1.166	0.531	0.462	0.642	2.028	1.986	-0.063	-0.032	0.191
0.212	25.528	-0.020	-0.089	0.094	0.162	1.180	0.500	0.541	0.586	2.032	1.987	-0.064	-0.037	0.188
0.213	25.562	-0.020	-0.090	0.106	0.164	1.212	0.477	0.682	0.522	2.034	1.989	-0.062	-0.042	0.187
0.213	25.546	-0.018	-0.089	0.121	0.164	1.271	0.493	0.775	0.558	2.031	1.992	-0.060	-0.045	0.177
0.213	25.513	-0.015	-0.090	0.133	0.162	1.307	0.512	0.827	0.659	2.028	1.989	-0.060	-0.048	0.177
0.213	25.537	-0.010	-0.091	0.148	0.157	1.321	0.536	0.792	0.740	2.036	1.992	-0.057	-0.050	0.177
0.213	25.543	-0.008	-0.092	0.162	0.151	1.309	0.556	0.670	0.766	2.034	1.999	-0.052	-0.055	0.168
0.214	25.540	-0.005	-0.093	0.180	0.143	1.259	0.546	0.525	0.678	2.029	1.999	-0.052	-0.056	0.162
0.214	25.534	-0.008	-0.096	0.190	0.132	1.177	0.529	0.461	0.536	2.026	1.984	-0.049	-0.058	0.157
0.214	25.543	-0.009	-0.098	0.205	0.124	1.145	0.482	0.450	0.400	2.028	1.984	-0.046	-0.058	0.149
0.214	25.555	-0.013	-0.101	0.216	0.115	1.148	0.465	0.504	0.359	2.028	1.985	-0.045	-0.055	0.145
0.214	25.549	-0.016	-0.103	0.230	0.107	1.157	0.474	0.526	0.392	2.029	1.989	-0.041	-0.057	0.138
0.215	25.552	-0.016	-0.104	0.238	0.100	1.184	0.505	0.478	0.475	2.024	1.980	-0.036	-0.060	0.131
0.215	25.571	-0.015	-0.107	0.247	0.095	1.201	0.538	0.381	0.537	2.031	1.982	-0.036	-0.056	0.125
0.215	25.568	-0.011	-0.110	0.252	0.093	1.201	0.545	0.356	0.544	2.024	1.984	-0.034	-0.057	0.118
0.215	25.577	-0.010	-0.111	0.254	0.094	1.172	0.501	0.378	0.509	2.034	1.982	-0.035	-0.057	0.113
0.215	25.589	-0.007	-0.115	0.255	0.096	1.138	0.444	0.435	0.506	2.024	1.984	-0.031	-0.057	0.105
0.216	25.592	-0.008	-0.113	0.252	0.100	1.101	0.415	0.488	0.538	2.023	1.982	-0.027	-0.057	0.097
0.216	25.568	-0.011	-0.115	0.248	0.104	1.090	0.407	0.502	0.618	2.029	1.984	-0.031	-0.056	0.094
0.216	25.607	-0.017	-0.117	0.244	0.108	1.070	0.426	0.489	0.719	2.022	1.986	-0.029	-0.056	0.082
0.216	25.586	-0.019	-0.118	0.238	0.111	1.064	0.429	0.432	0.797	2.026	1.984	-0.031	-0.057	0.076
0.216	25.598	-0.022	-0.117	0.229	0.112	1.041	0.434	0.385	0.866	2.023	1.981	-0.034	-0.054	0.066
0.217	25.595	-0.025	-0.116	0.218	0.108	0.995	0.440	0.359	0.840	2.031	1.979	-0.031	-0.057	0.059
0.217	25.604	-0.022	-0.114	0.207	0.107	0.989	0.398	0.359	0.792	2.026	1.978	-0.032	-0.055	0.051
0.217	25.604	-0.025	-0.111	0.194	0.100	0.978	0.346	0.423	0.755	2.035	1.980	-0.031	-0.054	0.041
0.217	25.604	-0.025	-0.107	0.182	0.090	0.987	0.304	0.495	0.775	2.025	1.982	-0.035	-0.056	0.036
0.217	25.577	-0.025	-0.103	0.169	0.076	0.994	0.278	0.538	0.863	2.034	1.969	-0.037	-0.052	0.026
0.218	25.601	-0.028	-0.099	0.154	0.061	1.001	0.286	0.523	0.992	2.022	1.974	-0.037	-0.049	0.017
0.218	25.595	-0.033	-0.094	0.142	0.043	0.967	0.307	0.485	1.069	2.021	1.977	-0.037	-0.047	0.012
0.218	25.598	-0.035	-0.091	0.128	0.028	0.933	0.329	0.456	1.096	2.025	1.977	-0.037	-0.043	0.006
0.218	25.592	-0.037	-0.088	0.115	0.009	0.882	0.324	0.487	1.056	2.029	1.987	-0.038	-0.037	0.000
0.218	25.595	-0.039	-0.086	0.101	-0.008	0.858	0.310	0.504	0.990	2.029	1.984	-0.037	-0.038	-0.004
0.219	25.580	-0.038	-0.083	0.091	-0.018	0.840	0.282	0.501	0.962	2.021	1.974	-0.039	-0.035	-0.009
0.219	25.595	-0.037	-0.080	0.079	-0.031	0.837	0.281	0.494	0.958	2.026	1.982	-0.038	-0.029	-0.011
0.219	25.601	-0.035	-0.078	0.071	-0.035	0.843	0.272	0.437	0.955	2.031	1.988	-0.037	-0.028	-0.011
0.219	25.601	-0.032	-0.076	0.064	-0.036	0.856	0.276	0.374	0.984	2.024	1.977	-0.035	-0.024	-0.015
0.219	25.610	-0.032	-0.072	0.057	-0.031	0.852	0.279	0.302	0.968	2.034	1.974	-0.034	-0.019	-0.019
0.220	25.598	-0.032	-0.068	0.054	-0.023	0.851	0.272	0.300	0.957	2.020	1.973	-0.035	-0.020	-0.019
0.220	25.592	-0.035	-0.067	0.053	-0.012	0.853	0.267	0.332	0.888	2.021	1.971	-0.035	-0.016	-0.020
0.220	25.607	-0.037	-0.065	0.050	0.002	0.835	0.283	0.393	0.858	2.025	1.969	-0.033	-0.010	-0.026
0.220	25.595	-0.037	-0.061	0.052	0.017	0.826	0.306	0.461	0.862	2.030	1.968	-0.034	-0.010	-0.026
0.220	25.595	-0.038	-0.062	0.051	0.031	0.822	0.329	0.483	0.905	2.023	1.976	-0.033	-0.009	-0.029
0.221	25.598	-0.036	-0.061	0.054	0.046	0.826	0.373	0.474	0.938	2.025	1.971	-0.034	-0.007	-0.030
0.221	25.601	-0.034	-0.059	0.058	0.060	0.826	0.405	0.426	0.983	2.020	1.966	-0.033	-0.005	-0.031
0.221	25.586	-0.031	-0.060	0.062	0.069	0.832	0.432	0.400	0.971	2.029	1.965	-0.031	-0.006	-0.032
0.221	25.586	-0.031	-0.057	0.069	0.078	0.859	0.428	0.426	0.923	2.027	1.962	-0.035	-0.007	-0.034
0.221	25.598	-0.033	-0.060	0.076	0.081	0.896	0.413	0.466	0.894	2.029	1.972	-0.033	-0.005	-0.036
0.222	25.592	-0.031	-0.058	0.083	0.084	0.951	0.424	0.487	0.876	2.027	1.973	-0.031	-0.007	-0.035
0.222	25.586	-0.035	-0.060	0.092	0.084	0.993	0.436	0.456	0.898	2.023	1.965	-0.035	-0.008	-0.036
0.222	25.592	-0.035	-0.061	0.096	0.083	0.997	0.492	0.385	0.912	2.022	1.964	-0.035	-0.009	-0.035
0.222	25.610	-0.034	-0.064	0.101	0.080	0.962	0.540	0.299	0.917	2.017	1.959	-0.036	-0.010	-0.034
0.222	25.580	-0.031	-0.065	0.103	0.075	0.930	0.569	0.259	0.906	2.024	1.962	-0.036	-0.012	-0.033
0.223	25.592	-0.029	-0.068	0.103	0.071	0.887	0.599	0.260	0.843	2.023	1.960	-0.037	-0.013	-0.033
0.223	25.589	-0.028	-0.071	0.098	0.067	0.878	0.590	0.288	0.820	2.025	1.959	-0.037	-0.015	-0.028
0.223	25.589	-0.029	-0.072	0.093	0.062	0.882	0.579	0.323	0.835	2.028	1.957	-0.035	-0.017	-0.024
0.223	25.598	-0.028	-0.074	0.085	0.062	0.905	0.561	0.350	0.880	2.026	1.959	-0.036	-0.017	-0.023
0.223	25.598	-0.032	-0.074	0.074	0.058	0.926	0.550	0.356	0.932	2.024	1.963	-0.035	-0.019	-0.019
0.224	25.577	-0.034	-0.076	0.062	0.061	0.933	0.544	0.338	0.953	2.025	1.957	-0.033	-0.020	-0.017
0.224	25.562	-0.034	-0.076	0.046	0.062	0.932	0.559	0.343	0.965	2.023	1.958	-0.033	-0.019	-0.011
0.224	25.565	-0.032	-0.076	0.032	0.064	0.913	0.598	0.378	0.963	2.020	1.956	-0.028	-0.022	-0.002
0.224	25.586	-0.028	-0.076	0.017	0.066	0.917	0.613	0.446	0.967	2.022	1.954	-0.027	-0.020	-0.000
0.224	25.592	-0.025	-0.076	0.005	0.063	0.901	0.608	0.476	1.026	2.027	1.944	-0.025	-0.020	0.006
0.225	25.589	-0.023	-0.075	-0.007	0.059	0.902	0.586	0.507	1.076	2.021	1.951	-0.022	-0.020	0.011
0.225	25.552	-0.022	-0.075	-0.016	0.053	0.935	0.545	0.498	1.171	2.018	1.948	-0.020	-0.018	0.016
0.225	25.574	-0.021	-0.075	-0.026	0.044	0.966	0.529	0.494	1.234	2.017	1.958	-0.012	-0.020	0.021
0.225	25.558	-0.022	-0.074	-0.030	0.035	1.010	0.537	0.490	1.221	2.018	1.955	-0.012	-0.019	0.028
0.225	25.546	-0.025	-0.075	-0.033	0.024	1.055	0.554	0.481	1.135	2.021	1.950	-0.009	-0.017	0.035
0.226	25.562	-0.028	-0.072	-0.035	0.014	1.051	0.571	0.501	1.062	2.023	1.946	-0.002	-0.015	0.038
0.226	25.546	-0.028	-0.069	-0.033	0.005	1.037	0.602	0.484	1.028	2.017	1.953	-0.000	-0.014	0.041
0.226	25.555	-0.028	-0.071	-0.031	-0.000	1.019	0.599	0.458	1.033	2.009	1.952	0.004	-0.013	0.047
0.226	25.558	-0.029	-0.071	-0.026	-0.001	0.991	0.548	0.403	1.068	2.006	1.946	0.008	-0.012	0.053
0.226	25.531	-0.026	-0.071	-0.021	-0.001	0.980	0.497	0.376	1.115	2.018	1.944	0.006	-0.011	0.056
0.227	25.546	-0.028	-0.072	-0.016	0.005	0.968	0.456	0.340	1.144	2.022	1.945	0.012	-0.009	0.061
0.227	25.571	-0.028	-0.073	-0.011	0.015	0.987	0.426	0.332	1.127	2.010	1.943	0.016	-0.009	0.065
0.227	25.546	-0.031	-0.076	-0.007	0.030	1.013	0.449	0.347	1.079	2.014	1.950	0.016	-0.009	0.068
0.227	25.540	-0.033	-0.078	-0.005	0.049	1.011	0.446	0.378	1.064	2.013	1.944	0.016	-0.007	0.071
0.227	25.546	-0.037	-0.079	-0.002	0.072	0.985	0.477	0.364	1.051	2.015	1.941	0.018	-0.006	0.075
0.228	25.549	-0.035	-0.081	-0.001	0.098	0.957	0.461	0.367	1.124	2.002	1.940	0.019	-0.008	0.079
0.228	25.534	-0.038	-0.083	0.001	0.127	0.905	0.428	0.349	1.186	2.006	1.938	0.020	-0.007	0.080
0.228	25.534	-0.037	-0.084	0.002	0.155	0.871	0.387	0.337	1.261	2.003	1.934	0.019	-0.007	0.081
0.228	25.525	-0.037	-0.085	0.004	0.184	0.872	0.365	0.287	1.294	2.000	1.943	0.020	-0.008	0.087
0.228	25.519	-0.036	-0.085	0.004	0.209	0.893	0.364	0.266	1.289	2.005	1.940	0.019	-0.005	0.085
0.229	25.531	-0.037	-0.084	0.005	0.232	0.889	0.387	0.257	1.258	2.006	1.939	0.020	-0.006	0.084
0.229	25.519	-0.038	-0.083	0.007	0.250	0.905	0.405	0.271	1.224	2.009	1.943	0.019	-0.004	0.086
0.229	25.522	-0.040	-0.083	0.011	0.263	0.871	0.412	0.264	1.210	2.002	1.936	0.020	0.000	0.083
0.229	25.500	-0.042	-0.084	0.021	0.273	0.862	0.390	0.219	1.233	2.001	1.939	0.020	0.000	0.084
0.229	25.513	-0.044	-0.084	0.032	0.273	0.839	0.357	0.172	1.317	2.004	1.942	0.019	0.002	0.087
0.230	25.494	-0.045	-0.085	0.047	0.273	0.846	0.339	0.150	1.421	1.994	1.932	0.019	0.006	0.080
0.230	25.507	-0.042	-0.086	0.060	0.263	0.865	0.359	0.151	1.491	2.001	1.927	0.019	0.007	0.079
0.230	25.522	-0.042	-0.087	0.080	0.253	0.861	0.417	0.186	1.512	2.004	1.922	0.021	0.012	0.077
0.230	25.491	-0.040	-0.087	0.097	0.241	0.862	0.501	0.240	1.431	2.001	1.925	0.020	0.014	0.076
0.230	25.500	-0.038	-0.086	0.115	0.228	0.841	0.573	0.276	1.350	2.001	1.929	0.019	0.019	0.071
0.231	25.507	-0.038	-0.086	0.136	0.214	0.814	0.604	0.280	1.287	1.997	1.926	0.022	0.021	0.073
0.231	25.491	-0.040	-0.085	0.151	0.200	0.790	0.611	0.298	1.281	1.997	1.926	0.021	0.023	0.067
0.231	25.500	-0.042	-0.084	0.169	0.190	0.781	0.566	0.293	1.326	1.999	1.936	0.022	0.028	0.063
0.231	25.485	-0.045	-0.085	0.182	0.179	0.784	0.537	0.319	1.375	2.003	1.935	0.022	0.031	0.059
0.231	25.470	-0.047	-0.084	0.197	0.171	0.803	0.549	0.306	1.420	2.005	1.932	0.022	0.034	0.054
0.232	25.482	-0.048	-0.084	0.209	0.168	0.827	0.603	0.318	1.435	2.002	1.926	0.021	0.039	0.049
0.232	25.479	-0.047	-0.084	0.219	0.168	0.841	0.672	0.318	1.392	1.988	1.933	0.023	0.044	0.042
0.232	25.473	-0.045	-0.083	0.227	0.171	0.839	0.743	0.291	1.347	1.992	1.922	0.020	0.046	0.037
0.232	25.473	-0.045	-0.084	0.232	0.176	0.798	0.786	0.234	1.312	1.988	1.922	0.018	0.047	0.031
0.232	25.464	-0.041	-0.087	0.234	0.181	0.753	0.771	0.197	1.317	1.987	1.919	0.016	0.050	0.025
0.233	25.464	-0.039	-0.086	0.237	0.192	0.712	0.722	0.183	1.340	1.996	1.920	0.014	0.054	0.017
0.233	25.449	-0.042	-0.087	0.233	0.201	0.681	0.702	0.213	1.368	1.995	1.921	0.011	0.055	0.013
0.233	25.452	-0.044	-0.088	0.229	0.208	0.704	0.703	0.271	1.381	1.989	1.926	0.009	0.056	0.006
0.233	25.476	-0.046	-0.088	0.221	0.216	0.755	0.756	0.343	1.358	1.990	1.918	0.003	0.058	-0.005
0.233	25.449	-0.048	-0.089	0.210	0.221	0.845	0.839	0.402	1.328	1.992	1.920	-0.001	0.058	-0.007
0.234	25.452	-0.047	-0.089	0.196	0.227	0.889	0.898	0.443	1.319	1.993	1.916	-0.006	0.059	-0.015
0.234	25.452	-0.047	-0.089	0.180	0.229	0.924	0.933	0.481	1.354	1.985	1.919	-0.011	0.059	-0.023
0.234	25.443	-0.044	-0.089	0.164	0.232	0.900	0.921	0.490	1.423	1.992	1.916	-0.017	0.058	-0.022
0.234	25.446	-0.041	-0.090	0.145	0.234	0.875	0.906	0.509	1.489	1.988	1.913	-0.022	0.058	-0.033
0.234	25.449	-0.039	-0.090	0.127	0.234	0.859	0.896	0.501	1.552	1.985	1.910	-0.030	0.056	-0.039
0.235	25.455	-0.037	-0.090	0.103	0.236	0.888	0.933	0.531	1.553	1.987	1.919	-0.033	0.053	-0.043
0.235	25.446	-0.039	-0.089	0.081	0.240	0.936	1.013	0.571	1.534	1.985	1.917	-0.041	0.050	-0.049
0.235	25.436	-0.039	-0.088	0.059	0.243	0.999	1.095	0.569	1.489	1.986	1.916	-0.048	0.049	-0.049
0.235	25.427	-0.040	-0.087	0.037	0.244	1.028	1.175	0.540	1.437	1.988	1.917	-0.053	0.049	-0.050
0.235	25.427	-0.040	-0.084	0.017	0.247	1.038	1.191	0.532	1.441	1.991	1.913	-0.059	0.046	-0.054
0.236	25.424	-0.039	-0.083	-0.004	0.247	1.030	1.169	0.534	1.482	1.980	1.918	-0.065	0.044	-0.054
0.236	25.436	-0.036	-0.078	-0.024	0.247	0.969	1.123	0.570	1.555	1.990	1.918	-0.069	0.039	-0.059
0.236	25.424	-0.032	-0.074	-0.040	0.248	0.925	1.111	0.617	1.615	1.990	1.916	-0.075	0.040	-0.055
0.236	25.430	-0.029	-0.071	-0.061	0.246	0.909	1.087	0.654	1.651	1.990	1.913	-0.079	0.042	-0.053
0.236	25.433	-0.026	-0.067	-0.073	0.243	0.895	1.124	0.706	1.638	1.987	1.909	-0.081	0.037	-0.054
0.237	25.412	-0.022	-0.065	-0.091	0.239	0.907	1.128	0.698	1.586	1.982	1.914	-0.087	0.038	-0.053
0.237	25.446	-0.019	-0.062	-0.105	0.233	0.908	1.131	0.708	1.563	1.980	1.909	-0.089	0.036	-0.053
0.237	25.424	-0.017	-0.059	-0.119	0.223	0.888	1.101	0.707	1.561	1.983	1.913	-0.090	0.038	-0.051
0.237	25.436	-0.015	-0.058	-0.131	0.214	0.846	1.077	0.708	1.589	1.985	1.910	-0.088	0.038	-0.048
0.237	25.430	-0.015	-0.056	-0.141	0.199	0.796	1.027	0.747	1.638	1.987	1.906	-0.091	0.037	-0.048
0.238	25.421	-0.015	-0.056	-0.149	0.186	0.791	1.007	0.800	1.676	1.988	1.910	-0.092	0.039	-0.047
0.238	25.427	-0.012	-0.054	-0.158	0.169	0.813	0.998	0.848	1.681	1.982	1.909	-0.089	0.040	-0.046
0.238	25.439	-0.010	-0.054	-0.163	0.155	0.851	1.001	0.883	1.674	1.982	1.901	-0.093	0.041	-0.043
0.238	25.412	-0.005	-0.050	-0.169	0.141	0.869	0.984	0.894	1.656	1.989	1.898	-0.092	0.043	-0.045
0.238	25.424	-0.002	-0.050	-0.170	0.130	0.839	0.979	0.898	1.642	1.984	1.906	-0.093	0.043	-0.043
0.239	25.424	0.002	-0.052	-0.174	0.123	0.785	0.955	0.895	1.644	1.987	1.908	-0.093	0.043	-0.041
0.239	25.412	0.006	-0.053	-0.175	0.120	0.690	0.929	0.893	1.680	1.986	1.900	-0.092	0.044	-0.042
0.239	25.427	0.007	-0.055	-0.176	0.119	0.626	0.914	0.895	1.721	1.990	1.902	-0.094	0.045	-0.038
0.239	25.446	0.008	-0.058	-0.177	0.125	0.558	0.900	0.892	1.759	1.990	1.907	-0.093	0.042	-0.038
0.239	25.430	0.011	-0.060	-0.179	0.131	0.574	0.897	0.896	1.793	1.991	1.905	-0.096	0.044	-0.037
0.240	25.443	0.013	-0.062	-0.180	0.141	0.617	0.897	0.863	1.750	1.980	1.894	-0.096	0.039	-0.035
0.240	25.443	0.018	-0.064	-0.181	0.151	0.666	0.901	0.827	1.746	1.981	1.904	-0.097	0.038	-0.035
0.240	25.458	0.023	-0.067	-0.181	0.162	0.711	0.904	0.792	1.734	1.975	1.896	-0.100	0.033	-0.031
0.240	25.452	0.026	-0.069	-0.180	0.169	0.687	0.871	0.792	1.743	1.985	1.905	-0.101	0.030	-0.028
0.240	25.439	0.029	-0.069	-0.179	0.175	0.608	0.847	0.809	1.775	1.980	1.901	-0.102	0.031	-0.027
0.241	25.443	0.031	-0.072	-0.177	0.183	0.487	0.816	0.821	1.794	1.988	1.900	-0.104	0.027	-0.021
0.241	25.446	0.030	-0.074	-0.174	0.187	0.378	0.802	0.839	1.805	1.980	1.896	-0.105	0.024	-0.022
0.241	25.436	0.029	-0.078	-0.172	0.191	0.327	0.789	0.847	1.783	1.982	1.891	-0.107	0.021	-0.018
0.241	25.452	0.028	-0.080	-0.170	0.190	0.349	0.808	0.840	1.711	1.988	1.897	-0.104	0.018	-0.016
0.241	25.446	0.028	-0.084	-0.166	0.188	0.398	0.827	0.823	1.674	1.982	1.894	-0.107	0.017	-0.012
0.242	25.430	0.029	-0.086	-0.165	0.181	0.475	0.848	0.833	1.607	1.980	1.903	-0.108	0.014	-0.009
0.242	25.443	0.032	-0.089	-0.159	0.171	0.520	0.859	0.807	1.644	1.982	1.900	-0.106	0.015	-0.005
0.242	25.443	0.038	-0.092	-0.155	0.159	0.536	0.860	0.784	1.729	1.980	1.899	-0.105	0.016	-0.002
0.242	25.436	0.041	-0.095	-0.147	0.145	0.485	0.877	0.785	1.839	1.984	1.896	-0.104	0.014	0.001
0.242	25.430	0.045	-0.098	-0.142	0.130	0.437	0.871	0.757	1.926	1.978	1.897	-0.103	0.014	0.004
0.243	25.436	0.045	-0.102	-0.132	0.112	0.378	0.908	0.763	1.954	1.984	1.897	-0.101	0.016	0.006
0.243	25.427	0.045	-0.103	-0.121	0.098	0.374	0.928	0.760	1.941	1.988	1.893	-0.097	0.019	0.008
0.243	25.458	0.042	-0.107	-0.104	0.081	0.436	0.966	0.791	1.896	1.977	1.889	-0.091	0.021	0.013
0.243	25.443	0.040	-0.108	-0.089	0.064	0.496	0.985	0.831	1.883	1.982	1.897	-0.091	0.023	0.015
0.243	25.433	0.038	-0.110	-0.071	0.053	0.534	1.002	0.856	1.890	1.986	1.895	-0.086	0.027	0.016
0.244	25.446	0.040	-0.111	-0.053	0.039	0.530	1.008	0.833	1.916	1.983	1.890	-0.081	0.030	0.018
0.244	25.439	0.040	-0.111	-0.034	0.029	0.530	1.022	0.788	1.956	1.989	1.894	-0.078	0.034	0.020
0.244	25.439	0.042	-0.112	-0.015	0.019	0.517	1.046	0.795	1.969	1.992	1.892	-0.074	0.039	0.021
0.244	25.446	0.043	-0.112	-0.001	0.010	0.483	1.083	0.824	1.944	1.982	1.890	-0.070	0.043	0.022
0.244	25.446	0.042	-0.110	0.017	0.001	0.507	1.102	0.862	1.899	1.983	1.891	-0.065	0.046	0.024
0.245	25.443	0.040	-0.109	0.032	-0.006	0.514	1.115	0.902	1.876	1.982	1.894	-0.061	0.053	0.024
0.245	25.427	0.036	-0.108	0.050	-0.013	0.545	1.123	0.920	1.894	1.987	1.884	-0.058	0.056	0.025
0.245	25.436	0.033	-0.107	0.069	-0.020	0.574	1.129	0.950	1.973	1.985	1.886	-0.056	0.058	0.027
0.245	25.436	0.030	-0.106	0.085	-0.025	0.582	1.124	0.968	2.053	1.983	1.880	-0.052	0.066	0.026
0.245	25.415	0.029	-0.105	0.101	-0.030	0.560	1.124	0.956	2.144	1.984	1.894	-0.050	0.066	0.026
0.246	25.424	0.032	-0.102	0.117	-0.036	0.551	1.110	0.966	2.185	1.983	1.895	-0.046	0.066	0.029
0.246	25.424	0.031	-0.103	0.131	-0.038	0.570	1.112	0.943	2.138	1.980	1.891	-0.043	0.069	0.031
0.246	25.430	0.033	-0.098	0.144	-0.047	0.575	1.136	0.940	2.077	1.989	1.893	-0.041	0.072	0.027
0.246	25.400	0.032	-0.096	0.159	-0.050	0.601	1.160	0.946	1.977	1.978	1.892	-0.038	0.072	0.029
0.246	25.424	0.030	-0.095	0.169	-0.056	0.638	1.162	0.943	1.915	1.987	1.882	-0.037	0.073	0.028
0.247	25.409	0.028	-0.095	0.181	-0.057	0.664	1.176	0.968	1.887	1.980	1.883	-0.038	0.071	0.028
0.247	25.397	0.023	-0.096	0.187	-0.058	0.650	1.134	0.965	1.941	1.984	1.881	-0.033	0.072	0.030
0.247	25.409	0.019	-0.094	0.194	-0.057	0.631	1.122	0.979	2.032	1.975	1.894	-0.030	0.069	0.028
0.247	25.403	0.017	-0.096	0.200	-0.052	0.617	1.119	0.959	2.078	1.972	1.890	-0.030	0.068	0.029
0.247	25.397	0.016	-0.096	0.207	-0.045	0.594	1.125	0.975	2.069	1.970	1.885	-0.027	0.066	0.029
0.248	25.400	0.017	-0.097	0.213	-0.035	0.590	1.135	0.947	2.026	1.974	1.884	-0.027	0.064	0.029
0.248	25.397	0.020	-0.097	0.221	-0.021	0.608	1.143	0.912	1.965	1.974	1.879	-0.022	0.062	0.027
0.248	25.406	0.020	-0.100	0.224	-0.004	0.637	1.150	0.869	1.900	1.975	1.878	-0.019	0.060	0.027
0.248	25.394	0.020	-0.100	0.230	0.015	0.652	1.130	0.820	1.875	1.984	1.884	-0.017	0.056	0.025
0.248	25.418	0.016	-0.101	0.235	0.038	0.643	1.112	0.788	1.866	1.970	1.881	-0.010	0.055	0.022
0.249	25.406	0.014	-0.102	0.238	0.063	0.635	1.095	0.743	1.831	1.971	1.882	-0.005	0.052	0.023
0.249	25.406	0.011	-0.102	0.241	0.089	0.597	1.079	0.734	1.806	1.975	1.879	-0.002	0.050	0.018
0.249	25.406	0.008	-0.101	0.243	0.117	0.579	1.090	0.737	1.779	1.971	1.879	0.003	0.047	0.016
0.249	25.418	0.004	-0.102	0.246	0.145	0.560	1.128	0.713	1.772	1.977	1.873	0.008	0.047	0.014
0.249	25.427	0.006	-0.100	0.247	0.174	0.537	1.147	0.674	1.780	1.976	1.880	0.014	0.046	0.010
0.250	25.403	0.006	-0.100	0.251	0.201	0.532	1.162	0.594	1.844	1.973	1.878	0.018	0.044	0.010
0.250	25.394	0.007	-0.099	0.253	0.227	0.529	1.150	0.594	1.906	1.971	1.880	0.022	0.047	0.005
0.250	25.403	0.004	-0.096	0.258	0.252	0.523	1.143	0.598	1.942	1.971	1.877	0.027	0.048	0.002
0.250	25.436	0.002	-0.094	0.263	0.276	0.507	1.131	0.625	1.949	1.974	1.873	0.033	0.049	0.002
0.250	25.409	-0.004	-0.090	0.269	0.294	0.472	1.139	0.625	1.922	1.963	1.874	0.037	0.053	-0.001
0.251	25.406	-0.009	-0.088	0.275	0.312	0.460	1.150	0.584	1.911	1.976	1.878	0.041	0.053	-0.004
