Comment:	20231003 sppedbump
Time	Vehicle Speed	FL Sprung acceleration	FR Sprung acceleration	RL Sprung acceleration	RR Sprung acceleration	FL Unsprung acceleration	FR Unsprung acceleration	RL Unsprung acceleration	RR Unsprung acceleration	Bellow pressure RL	Bellow pressure RR	Acceleration X	Acceleration Y	Acceleration Z
s	km/h	gn	gn	gn	gn	gn	gn	gn	gn	bar	bar	g	g	g
0.000	19.583	0.013	0.008	0.000	0.097	0.826	0.622	1.004	1.166	1.873	1.810	-0.147	-0.040	-0.059
0.000	19.574	0.009	0.009	0.004	0.108	0.845	0.637	1.022	1.162	1.868	1.811	-0.136	-0.049	-0.072
0.000	19.589	0.011	0.009	0.008	0.120	0.889	0.610	0.985	1.203	1.866	1.809	-0.127	-0.060	-0.082
0.001	19.574	0.014	0.009	0.011	0.129	0.913	0.606	0.946	1.209	1.878	1.819	-0.119	-0.069	-0.090
0.001	19.592	0.017	0.006	0.013	0.139	0.890	0.587	0.902	1.214	1.878	1.818	-0.113	-0.078	-0.096
0.001	19.583	0.019	0.005	0.020	0.146	0.873	0.621	0.878	1.174	1.876	1.814	-0.108	-0.085	-0.102
0.001	19.580	0.021	0.002	0.025	0.153	0.861	0.650	0.860	1.155	1.871	1.812	-0.106	-0.092	-0.108
0.001	19.574	0.019	-0.000	0.030	0.156	0.840	0.679	0.872	1.161	1.873	1.819	-0.104	-0.098	-0.108
0.002	19.595	0.017	-0.003	0.035	0.158	0.829	0.706	0.887	1.191	1.880	1.820	-0.106	-0.103	-0.109
0.002	19.592	0.013	-0.005	0.042	0.157	0.866	0.715	0.885	1.191	1.875	1.818	-0.110	-0.101	-0.107
0.002	19.583	0.009	-0.005	0.049	0.153	0.861	0.708	0.861	1.203	1.881	1.823	-0.117	-0.103	-0.104
0.002	19.592	0.010	-0.009	0.055	0.148	0.887	0.718	0.832	1.202	1.885	1.827	-0.125	-0.099	-0.098
0.002	19.586	0.006	-0.010	0.061	0.140	0.895	0.727	0.789	1.216	1.882	1.824	-0.135	-0.098	-0.093
0.003	19.586	0.009	-0.012	0.068	0.135	0.902	0.760	0.772	1.201	1.881	1.817	-0.147	-0.087	-0.086
0.003	19.592	0.008	-0.015	0.074	0.128	0.899	0.789	0.783	1.171	1.886	1.830	-0.160	-0.082	-0.079
0.003	19.592	0.007	-0.016	0.079	0.118	0.912	0.805	0.797	1.172	1.899	1.824	-0.173	-0.072	-0.071
0.003	19.565	0.005	-0.017	0.084	0.110	0.922	0.802	0.833	1.169	1.894	1.830	-0.186	-0.064	-0.061
0.003	19.589	-0.001	-0.019	0.088	0.099	0.931	0.767	0.882	1.203	1.889	1.820	-0.199	-0.052	-0.052
0.004	19.565	-0.005	-0.021	0.092	0.089	0.921	0.754	0.902	1.211	1.891	1.831	-0.211	-0.042	-0.041
0.004	19.608	-0.007	-0.022	0.097	0.078	0.929	0.760	0.906	1.214	1.885	1.824	-0.221	-0.032	-0.032
0.004	19.577	-0.008	-0.024	0.098	0.066	0.899	0.793	0.887	1.237	1.895	1.832	-0.231	-0.023	-0.021
0.004	19.614	-0.005	-0.025	0.101	0.056	0.865	0.831	0.882	1.238	1.884	1.829	-0.239	-0.014	-0.009
0.004	19.568	-0.002	-0.025	0.100	0.047	0.822	0.866	0.881	1.223	1.890	1.826	-0.245	-0.007	-0.001
0.005	19.595	0.000	-0.023	0.101	0.039	0.788	0.901	0.906	1.210	1.901	1.829	-0.249	-0.001	0.009
0.005	19.586	0.004	-0.023	0.099	0.036	0.781	0.877	0.923	1.211	1.890	1.840	-0.251	0.001	0.017
0.005	19.608	0.002	-0.021	0.097	0.035	0.762	0.858	0.954	1.204	1.897	1.832	-0.249	0.006	0.022
0.005	19.586	0.000	-0.019	0.093	0.037	0.732	0.835	0.955	1.200	1.897	1.842	-0.247	0.004	0.026
0.005	19.583	0.004	-0.017	0.091	0.040	0.726	0.825	0.973	1.200	1.898	1.833	-0.242	0.003	0.031
0.006	19.583	-0.000	-0.019	0.088	0.045	0.689	0.834	0.981	1.181	1.891	1.845	-0.234	0.001	0.031
0.006	19.568	-0.000	-0.016	0.087	0.054	0.683	0.876	0.979	1.163	1.894	1.838	-0.226	-0.003	0.032
0.006	19.589	-0.002	-0.018	0.086	0.062	0.635	0.878	0.989	1.156	1.895	1.838	-0.215	-0.008	0.029
0.006	19.574	-0.001	-0.014	0.086	0.077	0.628	0.922	0.977	1.179	1.896	1.846	-0.204	-0.013	0.027
0.006	19.559	-0.002	-0.015	0.086	0.092	0.601	0.904	0.968	1.180	1.897	1.847	-0.192	-0.019	0.022
0.007	19.565	-0.001	-0.014	0.084	0.103	0.583	0.880	0.947	1.177	1.902	1.839	-0.179	-0.026	0.016
0.007	19.559	-0.001	-0.013	0.082	0.120	0.563	0.853	0.942	1.165	1.898	1.852	-0.167	-0.031	0.013
0.007	19.559	-0.002	-0.013	0.079	0.138	0.532	0.825	0.951	1.149	1.902	1.845	-0.153	-0.038	0.007
0.007	19.559	-0.003	-0.012	0.075	0.158	0.517	0.852	0.954	1.139	1.900	1.840	-0.143	-0.041	0.002
0.007	19.543	-0.003	-0.012	0.072	0.178	0.528	0.890	0.948	1.118	1.904	1.848	-0.133	-0.044	-0.001
0.008	19.556	-0.004	-0.012	0.069	0.195	0.562	0.884	0.933	1.099	1.893	1.845	-0.124	-0.046	-0.008
0.008	19.559	-0.004	-0.013	0.064	0.207	0.591	0.898	0.904	1.055	1.899	1.851	-0.117	-0.046	-0.010
0.008	19.553	-0.004	-0.012	0.062	0.216	0.606	0.859	0.922	1.052	1.902	1.844	-0.111	-0.048	-0.014
0.008	19.556	-0.001	-0.012	0.057	0.221	0.601	0.841	0.943	1.059	1.907	1.850	-0.108	-0.047	-0.016
0.008	19.543	0.000	-0.012	0.056	0.222	0.580	0.819	0.960	1.058	1.887	1.856	-0.106	-0.043	-0.013
0.009	19.550	0.001	-0.010	0.053	0.221	0.533	0.836	0.971	1.027	1.899	1.845	-0.105	-0.039	-0.015
0.009	19.537	0.002	-0.009	0.052	0.215	0.500	0.837	0.956	1.080	1.891	1.852	-0.109	-0.036	-0.013
0.009	19.553	0.000	-0.006	0.049	0.208	0.464	0.871	0.920	1.102	1.895	1.856	-0.109	-0.029	-0.010
0.009	19.556	0.001	-0.004	0.050	0.197	0.475	0.864	0.913	1.092	1.912	1.857	-0.113	-0.024	-0.005
0.009	19.550	-0.000	-0.005	0.048	0.183	0.499	0.861	0.845	1.122	1.902	1.859	-0.120	-0.017	0.000
0.010	19.562	-0.003	-0.003	0.050	0.168	0.523	0.820	0.828	1.095	1.909	1.856	-0.124	-0.011	0.005
0.010	19.537	-0.005	-0.001	0.051	0.151	0.522	0.789	0.792	1.054	1.909	1.852	-0.134	-0.008	0.010
0.010	19.562	-0.007	0.000	0.050	0.132	0.507	0.744	0.807	1.023	1.905	1.853	-0.141	-0.002	0.017
0.010	19.553	-0.008	-0.001	0.047	0.113	0.456	0.747	0.800	0.946	1.905	1.858	-0.148	0.001	0.024
0.010	19.556	-0.009	0.000	0.049	0.094	0.399	0.728	0.836	0.928	1.912	1.860	-0.155	0.003	0.031
0.011	19.556	-0.007	0.001	0.045	0.077	0.364	0.752	0.826	0.929	1.907	1.868	-0.162	0.005	0.038
0.011	19.550	-0.008	-0.001	0.043	0.060	0.365	0.743	0.809	0.968	1.914	1.856	-0.168	0.003	0.042
0.011	19.562	-0.008	-0.000	0.040	0.046	0.395	0.727	0.773	1.016	1.913	1.863	-0.172	0.001	0.047
0.011	19.568	-0.008	-0.002	0.033	0.033	0.440	0.706	0.752	1.032	1.914	1.866	-0.175	-0.004	0.054
0.011	19.574	-0.008	-0.004	0.028	0.023	0.482	0.672	0.766	1.038	1.916	1.866	-0.176	-0.009	0.059
0.012	19.577	-0.010	-0.006	0.022	0.014	0.478	0.651	0.774	1.025	1.919	1.859	-0.176	-0.016	0.063
0.012	19.556	-0.011	-0.008	0.017	0.008	0.462	0.626	0.788	1.018	1.919	1.859	-0.175	-0.022	0.067
0.012	19.574	-0.014	-0.012	0.011	0.006	0.416	0.626	0.790	1.043	1.920	1.858	-0.175	-0.031	0.070
0.012	19.577	-0.013	-0.013	0.005	0.001	0.392	0.613	0.765	1.056	1.920	1.867	-0.171	-0.040	0.073
0.012	19.574	-0.013	-0.014	-0.002	0.005	0.368	0.622	0.742	1.081	1.925	1.872	-0.168	-0.049	0.071
0.013	19.598	-0.013	-0.014	-0.008	0.005	0.396	0.618	0.725	1.082	1.910	1.865	-0.161	-0.057	0.070
0.013	19.595	-0.011	-0.012	-0.009	0.011	0.425	0.620	0.734	1.053	1.923	1.869	-0.157	-0.067	0.070
0.013	19.583	-0.011	-0.013	-0.013	0.015	0.456	0.589	0.755	1.006	1.919	1.871	-0.148	-0.071	0.067
0.013	19.577	-0.010	-0.011	-0.013	0.024	0.482	0.583	0.765	0.942	1.912	1.869	-0.146	-0.076	0.064
0.013	19.577	-0.009	-0.011	-0.011	0.033	0.484	0.610	0.777	0.914	1.921	1.870	-0.139	-0.083	0.060
0.014	19.565	-0.009	-0.011	-0.013	0.046	0.458	0.602	0.767	0.921	1.921	1.869	-0.133	-0.085	0.055
0.014	19.577	-0.009	-0.011	-0.012	0.060	0.433	0.625	0.728	0.970	1.920	1.872	-0.127	-0.089	0.053
0.014	19.580	-0.007	-0.011	-0.009	0.078	0.424	0.632	0.711	1.018	1.914	1.873	-0.122	-0.090	0.047
0.014	19.586	-0.008	-0.013	-0.004	0.096	0.416	0.628	0.694	1.048	1.915	1.875	-0.118	-0.089	0.040
0.014	19.577	-0.008	-0.015	0.001	0.115	0.431	0.598	0.670	1.046	1.919	1.875	-0.116	-0.087	0.035
0.015	19.574	-0.006	-0.018	0.009	0.135	0.453	0.595	0.732	1.013	1.924	1.879	-0.114	-0.083	0.030
0.015	19.608	-0.005	-0.022	0.016	0.153	0.465	0.593	0.754	0.938	1.915	1.871	-0.107	-0.080	0.025
0.015	19.577	-0.002	-0.025	0.025	0.175	0.486	0.613	0.749	0.920	1.932	1.878	-0.107	-0.077	0.023
0.015	19.592	-0.005	-0.028	0.034	0.194	0.463	0.648	0.773	0.923	1.922	1.876	-0.105	-0.070	0.018
0.015	19.592	-0.004	-0.030	0.044	0.210	0.463	0.654	0.723	0.918	1.924	1.877	-0.107	-0.070	0.016
0.016	19.601	-0.005	-0.035	0.054	0.226	0.469	0.653	0.704	0.972	1.926	1.884	-0.106	-0.063	0.016
0.016	19.623	-0.007	-0.039	0.064	0.241	0.450	0.633	0.698	1.009	1.920	1.882	-0.109	-0.059	0.014
0.016	19.608	-0.010	-0.044	0.075	0.252	0.470	0.616	0.695	1.007	1.933	1.880	-0.109	-0.056	0.014
0.016	19.629	-0.014	-0.046	0.086	0.258	0.459	0.594	0.718	1.010	1.936	1.878	-0.112	-0.056	0.016
0.016	19.595	-0.015	-0.052	0.096	0.262	0.459	0.594	0.736	0.985	1.935	1.878	-0.113	-0.056	0.019
0.017	19.614	-0.015	-0.053	0.105	0.262	0.473	0.620	0.753	0.962	1.927	1.882	-0.114	-0.056	0.020
0.017	19.595	-0.016	-0.055	0.116	0.258	0.499	0.645	0.768	0.928	1.928	1.881	-0.117	-0.058	0.023
0.017	19.623	-0.018	-0.060	0.126	0.252	0.516	0.641	0.742	0.934	1.921	1.885	-0.117	-0.060	0.023
0.017	19.608	-0.021	-0.062	0.135	0.244	0.531	0.644	0.738	0.985	1.938	1.884	-0.123	-0.064	0.025
0.017	19.632	-0.026	-0.063	0.144	0.233	0.532	0.638	0.735	1.026	1.932	1.881	-0.123	-0.067	0.027
0.018	19.604	-0.031	-0.065	0.152	0.222	0.546	0.592	0.735	1.022	1.931	1.880	-0.124	-0.072	0.028
0.018	19.620	-0.033	-0.064	0.160	0.212	0.572	0.581	0.737	1.003	1.930	1.884	-0.126	-0.077	0.029
0.018	19.626	-0.039	-0.064	0.165	0.199	0.584	0.592	0.756	0.950	1.929	1.885	-0.126	-0.083	0.030
0.018	19.614	-0.041	-0.062	0.172	0.188	0.566	0.620	0.768	0.901	1.940	1.892	-0.128	-0.084	0.029
0.018	19.635	-0.043	-0.061	0.176	0.177	0.573	0.653	0.783	0.856	1.934	1.888	-0.129	-0.087	0.030
0.019	19.617	-0.045	-0.058	0.181	0.169	0.563	0.672	0.775	0.848	1.931	1.887	-0.129	-0.089	0.031
0.019	19.635	-0.044	-0.057	0.185	0.161	0.561	0.675	0.743	0.888	1.936	1.886	-0.128	-0.091	0.032
0.019	19.623	-0.046	-0.055	0.191	0.156	0.572	0.641	0.713	0.947	1.936	1.894	-0.131	-0.089	0.033
0.019	19.626	-0.048	-0.053	0.196	0.154	0.580	0.611	0.694	0.977	1.937	1.893	-0.129	-0.088	0.034
0.019	19.626	-0.051	-0.052	0.202	0.155	0.571	0.584	0.663	0.970	1.943	1.890	-0.132	-0.084	0.037
0.020	19.626	-0.052	-0.050	0.209	0.155	0.562	0.597	0.677	0.949	1.941	1.890	-0.132	-0.079	0.038
0.020	19.614	-0.054	-0.048	0.215	0.158	0.556	0.598	0.674	0.914	1.946	1.882	-0.136	-0.074	0.040
0.020	19.620	-0.054	-0.044	0.221	0.164	0.555	0.610	0.686	0.906	1.938	1.884	-0.135	-0.065	0.043
0.020	19.629	-0.053	-0.041	0.228	0.170	0.542	0.585	0.704	0.941	1.949	1.890	-0.137	-0.058	0.047
0.020	19.620	-0.053	-0.037	0.232	0.176	0.579	0.561	0.680	0.982	1.952	1.891	-0.138	-0.047	0.050
0.021	19.617	-0.054	-0.033	0.236	0.185	0.579	0.525	0.635	1.017	1.948	1.890	-0.139	-0.039	0.052
0.021	19.617	-0.054	-0.029	0.239	0.192	0.590	0.489	0.585	1.071	1.941	1.898	-0.140	-0.029	0.059
0.021	19.614	-0.057	-0.027	0.239	0.199	0.594	0.495	0.528	1.080	1.955	1.902	-0.140	-0.019	0.065
0.021	19.617	-0.057	-0.023	0.239	0.206	0.590	0.506	0.485	1.087	1.949	1.892	-0.139	-0.009	0.071
0.021	19.617	-0.057	-0.021	0.237	0.212	0.595	0.521	0.484	1.026	1.950	1.895	-0.141	-0.000	0.075
0.022	19.611	-0.060	-0.021	0.234	0.218	0.585	0.549	0.485	0.971	1.956	1.901	-0.141	0.007	0.079
0.022	19.629	-0.059	-0.021	0.227	0.221	0.595	0.556	0.498	0.944	1.949	1.897	-0.139	0.013	0.084
0.022	19.644	-0.061	-0.023	0.219	0.225	0.633	0.553	0.493	0.955	1.953	1.896	-0.139	0.017	0.088
0.022	19.647	-0.062	-0.022	0.210	0.227	0.634	0.551	0.453	0.993	1.955	1.902	-0.135	0.022	0.091
0.022	19.653	-0.061	-0.025	0.202	0.230	0.640	0.547	0.426	1.033	1.963	1.896	-0.133	0.022	0.096
0.023	19.653	-0.062	-0.025	0.192	0.232	0.669	0.541	0.410	1.072	1.955	1.902	-0.130	0.023	0.101
0.023	19.620	-0.066	-0.025	0.182	0.234	0.700	0.559	0.387	1.066	1.962	1.899	-0.126	0.020	0.102
0.023	19.650	-0.065	-0.023	0.170	0.236	0.724	0.591	0.385	1.021	1.961	1.903	-0.122	0.018	0.104
0.023	19.644	-0.065	-0.023	0.160	0.239	0.740	0.617	0.402	0.986	1.961	1.902	-0.115	0.012	0.106
0.023	19.653	-0.061	-0.021	0.149	0.240	0.751	0.643	0.428	0.997	1.955	1.905	-0.109	0.006	0.105
0.024	19.672	-0.059	-0.022	0.139	0.240	0.748	0.646	0.427	1.014	1.970	1.902	-0.104	-0.003	0.109
0.024	19.662	-0.056	-0.023	0.127	0.244	0.763	0.651	0.400	1.063	1.951	1.903	-0.098	-0.010	0.110
0.024	19.678	-0.051	-0.023	0.119	0.245	0.767	0.660	0.371	1.105	1.951	1.901	-0.092	-0.016	0.112
0.024	19.647	-0.049	-0.021	0.112	0.245	0.767	0.680	0.332	1.142	1.966	1.903	-0.086	-0.023	0.112
0.024	19.687	-0.046	-0.020	0.102	0.245	0.773	0.711	0.326	1.162	1.963	1.904	-0.081	-0.029	0.114
0.025	19.653	-0.044	-0.019	0.095	0.242	0.798	0.708	0.376	1.130	1.955	1.904	-0.079	-0.034	0.116
0.025	19.687	-0.045	-0.016	0.088	0.241	0.784	0.706	0.407	1.111	1.958	1.903	-0.075	-0.037	0.117
0.025	19.672	-0.043	-0.013	0.085	0.237	0.775	0.696	0.441	1.064	1.966	1.908	-0.074	-0.041	0.121
0.025	19.699	-0.042	-0.011	0.080	0.231	0.781	0.670	0.461	1.060	1.975	1.907	-0.075	-0.039	0.125
0.025	19.662	-0.045	-0.008	0.077	0.221	0.741	0.640	0.436	1.050	1.970	1.908	-0.076	-0.037	0.128
0.026	19.675	-0.038	-0.004	0.075	0.214	0.734	0.617	0.422	1.092	1.974	1.904	-0.078	-0.036	0.134
0.026	19.675	-0.035	-0.004	0.070	0.204	0.719	0.609	0.396	1.122	1.968	1.898	-0.081	-0.030	0.138
0.026	19.659	-0.029	-0.004	0.069	0.193	0.738	0.605	0.436	1.117	1.972	1.908	-0.087	-0.027	0.142
0.026	19.662	-0.029	-0.005	0.067	0.185	0.746	0.610	0.490	1.070	1.969	1.912	-0.094	-0.019	0.148
0.026	19.662	-0.025	-0.009	0.069	0.171	0.768	0.592	0.540	1.022	1.964	1.909	-0.101	-0.011	0.151
0.027	19.653	-0.025	-0.012	0.069	0.159	0.764	0.568	0.528	0.980	1.964	1.915	-0.108	-0.002	0.157
0.027	19.672	-0.021	-0.015	0.070	0.150	0.783	0.529	0.485	0.994	1.964	1.912	-0.116	0.006	0.161
0.027	19.666	-0.022	-0.018	0.069	0.140	0.750	0.511	0.425	1.019	1.968	1.915	-0.124	0.015	0.165
0.027	19.669	-0.018	-0.022	0.070	0.134	0.746	0.506	0.401	1.052	1.971	1.903	-0.131	0.022	0.166
0.027	19.659	-0.016	-0.021	0.068	0.127	0.747	0.536	0.381	1.063	1.963	1.913	-0.137	0.028	0.172
0.028	19.672	-0.013	-0.025	0.067	0.126	0.736	0.545	0.415	1.063	1.976	1.909	-0.145	0.033	0.173
0.028	19.653	-0.010	-0.024	0.063	0.123	0.731	0.562	0.476	1.057	1.979	1.913	-0.148	0.037	0.174
0.028	19.687	-0.005	-0.024	0.061	0.126	0.739	0.528	0.512	1.043	1.977	1.914	-0.151	0.036	0.173
0.028	19.659	-0.003	-0.023	0.056	0.129	0.716	0.457	0.526	1.035	1.971	1.912	-0.152	0.038	0.173
0.028	19.678	-0.001	-0.021	0.055	0.135	0.710	0.401	0.522	1.064	1.969	1.916	-0.151	0.032	0.169
0.029	19.656	0.003	-0.020	0.052	0.142	0.716	0.353	0.471	1.106	1.974	1.917	-0.149	0.026	0.168
0.029	19.678	0.004	-0.019	0.049	0.153	0.723	0.343	0.428	1.153	1.972	1.920	-0.144	0.016	0.162
0.029	19.681	0.008	-0.020	0.048	0.163	0.739	0.396	0.422	1.173	1.980	1.910	-0.139	0.007	0.157
0.029	19.693	0.011	-0.018	0.047	0.178	0.754	0.433	0.454	1.186	1.974	1.910	-0.131	-0.005	0.153
0.029	19.669	0.016	-0.016	0.046	0.191	0.779	0.457	0.509	1.150	1.979	1.907	-0.121	-0.016	0.145
0.030	19.669	0.020	-0.016	0.046	0.201	0.792	0.456	0.519	1.116	1.983	1.913	-0.113	-0.030	0.141
0.030	19.644	0.023	-0.015	0.046	0.216	0.792	0.421	0.492	1.106	1.975	1.917	-0.103	-0.042	0.131
0.030	19.678	0.026	-0.012	0.048	0.226	0.805	0.373	0.417	1.160	1.983	1.922	-0.093	-0.054	0.127
0.030	19.681	0.027	-0.013	0.053	0.235	0.828	0.339	0.361	1.203	1.976	1.923	-0.082	-0.066	0.119
0.030	19.659	0.029	-0.012	0.058	0.245	0.870	0.356	0.346	1.217	1.979	1.926	-0.073	-0.076	0.113
0.031	19.675	0.029	-0.013	0.064	0.250	0.910	0.389	0.355	1.241	1.974	1.925	-0.064	-0.087	0.109
0.031	19.669	0.030	-0.011	0.074	0.256	0.919	0.422	0.366	1.237	1.981	1.915	-0.057	-0.093	0.106
0.031	19.669	0.031	-0.010	0.083	0.258	0.909	0.459	0.402	1.202	1.982	1.920	-0.050	-0.099	0.101
0.031	19.699	0.031	-0.010	0.090	0.258	0.882	0.444	0.439	1.198	1.982	1.923	-0.045	-0.102	0.098
0.031	19.675	0.031	-0.008	0.101	0.259	0.872	0.427	0.409	1.166	1.985	1.915	-0.043	-0.103	0.094
0.032	19.678	0.031	-0.008	0.111	0.258	0.877	0.392	0.343	1.164	1.985	1.925	-0.040	-0.101	0.094
0.032	19.675	0.029	-0.007	0.119	0.255	0.885	0.393	0.274	1.183	1.976	1.926	-0.041	-0.098	0.093
0.032	19.690	0.027	-0.006	0.126	0.251	0.916	0.419	0.249	1.199	1.978	1.926	-0.042	-0.093	0.092
0.032	19.672	0.022	-0.005	0.133	0.247	0.949	0.439	0.275	1.231	1.985	1.926	-0.048	-0.090	0.093
0.032	19.672	0.019	-0.006	0.135	0.240	0.957	0.481	0.310	1.254	1.985	1.929	-0.050	-0.082	0.092
0.033	19.681	0.016	-0.010	0.142	0.233	0.984	0.471	0.323	1.283	1.979	1.925	-0.060	-0.073	0.093
0.033	19.681	0.011	-0.010	0.146	0.226	0.989	0.452	0.351	1.299	1.978	1.922	-0.064	-0.066	0.093
0.033	19.690	0.009	-0.014	0.143	0.218	0.995	0.414	0.348	1.283	1.984	1.926	-0.072	-0.058	0.094
0.033	19.684	0.007	-0.014	0.142	0.211	0.995	0.409	0.342	1.286	1.973	1.925	-0.080	-0.054	0.095
0.033	19.693	0.005	-0.016	0.140	0.206	1.014	0.416	0.344	1.312	1.977	1.924	-0.089	-0.046	0.096
0.034	19.690	0.004	-0.017	0.137	0.197	1.026	0.489	0.287	1.361	1.981	1.930	-0.098	-0.041	0.097
0.034	19.702	0.002	-0.017	0.136	0.192	1.064	0.535	0.301	1.399	1.978	1.921	-0.106	-0.036	0.098
0.034	19.690	-0.002	-0.019	0.132	0.188	1.079	0.607	0.334	1.422	1.989	1.934	-0.115	-0.037	0.097
0.034	19.708	-0.008	-0.020	0.130	0.186	1.084	0.631	0.349	1.404	1.984	1.920	-0.122	-0.035	0.102
0.034	19.711	-0.013	-0.022	0.126	0.183	1.098	0.635	0.354	1.374	1.987	1.928	-0.128	-0.037	0.104
0.035	19.702	-0.018	-0.024	0.126	0.182	1.099	0.620	0.357	1.333	1.995	1.928	-0.134	-0.040	0.102
0.035	19.690	-0.021	-0.022	0.124	0.182	1.108	0.579	0.325	1.318	1.988	1.926	-0.141	-0.040	0.103
0.035	19.708	-0.026	-0.023	0.121	0.184	1.090	0.577	0.291	1.317	1.987	1.931	-0.143	-0.045	0.101
0.035	19.705	-0.024	-0.020	0.119	0.184	1.084	0.580	0.253	1.356	1.993	1.925	-0.144	-0.050	0.100
0.035	19.720	-0.026	-0.018	0.114	0.190	1.070	0.608	0.270	1.395	2.004	1.929	-0.147	-0.052	0.098
0.036	19.711	-0.027	-0.012	0.109	0.194	1.046	0.621	0.238	1.386	1.988	1.929	-0.143	-0.058	0.094
0.036	19.720	-0.027	-0.008	0.105	0.203	1.052	0.621	0.257	1.398	1.992	1.931	-0.147	-0.064	0.094
0.036	19.714	-0.032	-0.002	0.099	0.211	1.027	0.595	0.251	1.385	1.993	1.925	-0.145	-0.064	0.089
0.036	19.724	-0.032	0.002	0.092	0.222	1.044	0.567	0.252	1.421	2.007	1.934	-0.144	-0.067	0.086
0.036	19.733	-0.036	0.007	0.085	0.233	1.030	0.532	0.237	1.423	1.999	1.929	-0.141	-0.066	0.082
0.037	19.739	-0.038	0.010	0.075	0.246	1.041	0.524	0.237	1.438	1.997	1.928	-0.139	-0.064	0.078
0.037	19.736	-0.041	0.015	0.066	0.257	1.021	0.541	0.250	1.441	1.992	1.929	-0.137	-0.064	0.077
0.037	19.736	-0.043	0.017	0.056	0.271	0.996	0.547	0.290	1.466	2.000	1.933	-0.135	-0.062	0.076
0.037	19.733	-0.042	0.021	0.047	0.279	0.975	0.570	0.330	1.459	1.997	1.931	-0.133	-0.058	0.076
0.037	19.748	-0.044	0.025	0.037	0.287	0.978	0.563	0.331	1.432	1.995	1.934	-0.131	-0.054	0.076
0.038	19.739	-0.045	0.025	0.028	0.292	0.992	0.557	0.323	1.426	2.001	1.934	-0.133	-0.050	0.078
0.038	19.751	-0.047	0.024	0.020	0.295	1.010	0.537	0.315	1.443	1.994	1.935	-0.130	-0.043	0.081
0.038	19.742	-0.050	0.026	0.013	0.295	1.009	0.561	0.272	1.433	2.000	1.937	-0.130	-0.039	0.082
0.038	19.739	-0.052	0.025	0.006	0.290	0.999	0.534	0.255	1.438	1.999	1.935	-0.129	-0.034	0.086
0.038	19.751	-0.056	0.023	0.002	0.283	0.970	0.533	0.222	1.422	2.006	1.932	-0.128	-0.031	0.090
0.039	19.742	-0.059	0.022	-0.000	0.272	0.969	0.557	0.231	1.413	2.007	1.933	-0.130	-0.027	0.095
0.039	19.742	-0.061	0.016	0.000	0.258	0.969	0.584	0.243	1.398	1.999	1.934	-0.130	-0.025	0.102
0.039	19.769	-0.059	0.011	0.002	0.239	1.006	0.594	0.238	1.404	1.999	1.935	-0.131	-0.025	0.106
0.039	19.751	-0.057	0.006	0.002	0.221	1.069	0.611	0.221	1.380	1.997	1.929	-0.131	-0.025	0.113
0.039	19.763	-0.056	-0.000	0.007	0.199	1.099	0.569	0.184	1.375	2.005	1.937	-0.129	-0.028	0.119
0.040	19.754	-0.052	-0.002	0.011	0.177	1.137	0.533	0.184	1.363	2.009	1.937	-0.128	-0.032	0.125
0.040	19.748	-0.054	-0.005	0.018	0.156	1.145	0.540	0.192	1.361	2.001	1.934	-0.125	-0.037	0.130
0.040	19.766	-0.055	-0.009	0.024	0.136	1.126	0.545	0.179	1.347	1.998	1.936	-0.122	-0.043	0.134
0.040	19.757	-0.052	-0.014	0.034	0.120	1.131	0.556	0.197	1.357	2.003	1.939	-0.116	-0.050	0.139
0.040	19.772	-0.054	-0.014	0.038	0.105	1.153	0.580	0.192	1.362	2.005	1.940	-0.113	-0.056	0.142
0.041	19.754	-0.051	-0.016	0.045	0.096	1.177	0.595	0.183	1.375	2.012	1.942	-0.106	-0.066	0.143
0.041	19.760	-0.050	-0.015	0.050	0.089	1.228	0.590	0.177	1.382	2.014	1.941	-0.102	-0.071	0.147
0.041	19.766	-0.047	-0.016	0.055	0.087	1.259	0.593	0.195	1.377	2.018	1.943	-0.095	-0.079	0.147
0.041	19.778	-0.048	-0.014	0.059	0.087	1.264	0.582	0.213	1.367	2.014	1.944	-0.089	-0.084	0.150
0.041	19.763	-0.045	-0.015	0.061	0.089	1.256	0.561	0.237	1.363	2.018	1.940	-0.083	-0.089	0.152
0.042	19.775	-0.043	-0.011	0.063	0.094	1.226	0.577	0.214	1.351	2.020	1.943	-0.079	-0.091	0.154
0.042	19.751	-0.041	-0.009	0.063	0.102	1.202	0.582	0.181	1.348	2.014	1.937	-0.073	-0.093	0.155
0.042	19.781	-0.040	-0.004	0.063	0.112	1.228	0.596	0.156	1.361	2.007	1.939	-0.069	-0.092	0.158
0.042	19.775	-0.036	-0.001	0.062	0.122	1.280	0.630	0.128	1.390	2.021	1.936	-0.066	-0.091	0.160
0.042	19.788	-0.036	0.003	0.057	0.134	1.325	0.644	0.104	1.419	2.021	1.944	-0.065	-0.086	0.164
0.043	19.769	-0.032	0.008	0.053	0.145	1.379	0.650	0.104	1.397	2.023	1.932	-0.064	-0.080	0.168
0.043	19.785	-0.031	0.009	0.048	0.156	1.386	0.655	0.112	1.389	2.019	1.943	-0.064	-0.075	0.173
0.043	19.775	-0.030	0.011	0.043	0.168	1.357	0.619	0.130	1.389	2.011	1.944	-0.068	-0.067	0.179
0.043	19.797	-0.027	0.012	0.035	0.178	1.313	0.597	0.133	1.421	2.021	1.939	-0.071	-0.062	0.185
0.043	19.791	-0.028	0.011	0.030	0.190	1.292	0.572	0.105	1.440	2.009	1.945	-0.075	-0.054	0.193
0.044	19.778	-0.025	0.008	0.023	0.197	1.297	0.582	0.086	1.504	2.019	1.942	-0.078	-0.049	0.198
0.044	19.797	-0.027	0.005	0.017	0.206	1.332	0.592	0.082	1.536	2.018	1.947	-0.082	-0.043	0.204
0.044	19.778	-0.024	0.001	0.010	0.213	1.369	0.605	0.077	1.559	2.023	1.943	-0.085	-0.041	0.210
0.044	19.766	-0.026	-0.002	0.006	0.219	1.429	0.615	0.085	1.564	2.020	1.939	-0.089	-0.038	0.213
0.044	19.775	-0.024	-0.010	0.003	0.224	1.415	0.602	0.082	1.537	2.016	1.949	-0.091	-0.039	0.216
0.045	19.763	-0.025	-0.014	0.000	0.230	1.404	0.577	0.093	1.516	2.025	1.951	-0.092	-0.039	0.217
0.045	19.766	-0.024	-0.022	-0.002	0.235	1.348	0.580	0.092	1.484	2.022	1.947	-0.093	-0.044	0.217
0.045	19.742	-0.026	-0.028	-0.002	0.243	1.328	0.560	0.092	1.478	2.020	1.948	-0.094	-0.047	0.216
0.045	19.775	-0.026	-0.033	-0.001	0.250	1.293	0.570	0.089	1.488	2.018	1.951	-0.090	-0.053	0.213
0.045	19.760	-0.026	-0.039	0.005	0.258	1.294	0.584	0.068	1.538	2.022	1.949	-0.089	-0.062	0.210
0.046	19.757	-0.029	-0.046	0.011	0.271	1.294	0.605	0.043	1.574	2.029	1.950	-0.087	-0.069	0.204
0.046	19.760	-0.030	-0.050	0.019	0.280	1.301	0.635	0.041	1.581	2.027	1.949	-0.081	-0.079	0.198
0.046	19.757	-0.030	-0.057	0.030	0.295	1.278	0.642	0.045	1.604	2.020	1.948	-0.077	-0.086	0.190
0.046	19.748	-0.030	-0.061	0.043	0.307	1.235	0.647	0.048	1.572	2.027	1.947	-0.073	-0.097	0.182
0.046	19.785	-0.030	-0.066	0.059	0.319	1.195	0.651	0.068	1.523	2.019	1.944	-0.067	-0.104	0.173
0.047	19.769	-0.031	-0.071	0.076	0.333	1.140	0.656	0.078	1.498	2.024	1.944	-0.062	-0.113	0.165
0.047	19.748	-0.034	-0.073	0.095	0.345	1.137	0.678	0.121	1.517	2.012	1.954	-0.058	-0.120	0.158
0.047	19.772	-0.035	-0.074	0.114	0.357	1.136	0.694	0.154	1.513	2.024	1.947	-0.053	-0.123	0.147
0.047	19.760	-0.038	-0.074	0.134	0.368	1.160	0.728	0.132	1.540	2.022	1.950	-0.051	-0.128	0.142
0.047	19.772	-0.042	-0.073	0.154	0.376	1.173	0.730	0.077	1.568	2.024	1.952	-0.049	-0.129	0.135
0.048	19.763	-0.045	-0.072	0.171	0.379	1.202	0.753	0.029	1.569	2.028	1.949	-0.048	-0.130	0.131
0.048	19.751	-0.048	-0.070	0.189	0.385	1.196	0.755	-0.025	1.561	2.023	1.951	-0.050	-0.128	0.128
0.048	19.751	-0.050	-0.067	0.204	0.387	1.153	0.787	-0.039	1.563	2.020	1.951	-0.052	-0.124	0.124
0.048	19.730	-0.053	-0.063	0.220	0.385	1.108	0.797	-0.008	1.584	2.025	1.951	-0.058	-0.118	0.122
0.048	19.754	-0.052	-0.059	0.231	0.385	1.081	0.810	0.031	1.608	2.031	1.950	-0.064	-0.110	0.123
0.049	19.775	-0.053	-0.056	0.243	0.377	1.053	0.812	0.058	1.654	2.022	1.949	-0.072	-0.098	0.126
0.049	19.763	-0.053	-0.051	0.250	0.368	1.053	0.828	0.060	1.670	2.024	1.946	-0.083	-0.089	0.130
0.049	19.769	-0.054	-0.048	0.259	0.364	1.065	0.851	0.013	1.688	2.026	1.948	-0.094	-0.076	0.137
0.049	19.769	-0.056	-0.043	0.264	0.356	1.089	0.888	-0.026	1.627	2.025	1.945	-0.105	-0.060	0.140
0.049	19.745	-0.056	-0.038	0.270	0.351	1.084	0.937	-0.077	1.591	2.028	1.953	-0.119	-0.046	0.153
0.050	19.760	-0.059	-0.034	0.271	0.346	1.057	0.949	-0.086	1.553	2.023	1.958	-0.132	-0.030	0.152
0.050	19.769	-0.061	-0.028	0.272	0.341	1.014	0.968	-0.085	1.553	2.030	1.949	-0.145	-0.016	0.161
0.050	19.766	-0.062	-0.023	0.270	0.338	0.982	0.967	-0.019	1.548	2.025	1.955	-0.157	-0.000	0.168
0.050	19.778	-0.062	-0.018	0.270	0.335	0.963	0.961	0.001	1.561	2.038	1.951	-0.170	0.013	0.175
0.050	19.772	-0.063	-0.013	0.266	0.337	0.981	0.944	0.035	1.613	2.025	1.946	-0.181	0.026	0.182
0.051	19.791	-0.061	-0.009	0.261	0.336	1.009	0.933	-0.001	1.632	2.025	1.956	-0.188	0.037	0.188
0.051	19.772	-0.061	-0.004	0.256	0.341	1.027	0.950	-0.045	1.647	2.027	1.952	-0.193	0.044	0.194
0.051	19.788	-0.061	-0.002	0.248	0.342	1.026	0.971	-0.065	1.670	2.019	1.957	-0.197	0.052	0.201
0.051	19.785	-0.060	0.002	0.242	0.348	1.003	1.020	-0.083	1.647	2.021	1.957	-0.198	0.054	0.204
0.051	19.772	-0.058	0.001	0.231	0.355	0.978	1.017	-0.039	1.672	2.024	1.957	-0.197	0.059	0.209
0.052	19.803	-0.057	0.002	0.223	0.362	0.949	1.008	0.011	1.678	2.013	1.955	-0.191	0.059	0.210
0.052	19.785	-0.053	0.001	0.211	0.371	0.960	0.977	0.041	1.750	2.022	1.948	-0.183	0.056	0.211
0.052	19.791	-0.050	0.000	0.203	0.380	0.970	0.942	0.024	1.736	2.021	1.957	-0.175	0.049	0.213
0.052	19.803	-0.044	-0.002	0.191	0.389	1.016	0.919	-0.015	1.759	2.021	1.954	-0.163	0.043	0.212
0.052	19.775	-0.043	-0.002	0.182	0.396	1.054	0.913	-0.032	1.707	2.019	1.966	-0.149	0.033	0.211
0.053	19.794	-0.041	-0.003	0.171	0.403	1.043	0.937	-0.013	1.627	2.028	1.956	-0.134	0.023	0.210
0.053	19.800	-0.040	-0.004	0.163	0.409	1.041	0.965	0.059	1.557	2.022	1.955	-0.117	0.011	0.209
0.053	19.815	-0.041	-0.004	0.152	0.413	0.995	0.997	0.136	1.539	2.026	1.955	-0.103	-0.001	0.204
0.053	19.806	-0.041	-0.005	0.146	0.413	0.983	0.998	0.211	1.563	2.022	1.952	-0.083	-0.013	0.200
0.053	19.788	-0.040	-0.005	0.136	0.413	0.983	0.995	0.221	1.629	2.032	1.959	-0.067	-0.025	0.197
0.054	19.791	-0.037	-0.005	0.131	0.409	1.007	0.959	0.202	1.648	2.023	1.961	-0.050	-0.035	0.194
0.054	19.797	-0.031	-0.004	0.123	0.406	1.043	0.942	0.145	1.661	2.022	1.957	-0.040	-0.043	0.191
0.054	19.785	-0.027	-0.005	0.114	0.397	1.042	0.935	0.093	1.640	2.025	1.955	-0.027	-0.050	0.188
0.054	19.803	-0.021	-0.003	0.108	0.388	1.015	0.949	0.104	1.617	2.022	1.950	-0.018	-0.052	0.186
0.054	19.794	-0.017	-0.001	0.103	0.376	0.965	0.975	0.150	1.524	2.019	1.954	-0.012	-0.058	0.183
0.055	19.778	-0.015	0.001	0.097	0.365	0.920	0.946	0.239	1.492	2.021	1.954	-0.006	-0.056	0.187
0.055	19.788	-0.016	0.005	0.094	0.350	0.892	0.930	0.310	1.482	2.022	1.952	-0.003	-0.052	0.188
0.055	19.772	-0.014	0.007	0.092	0.335	0.910	0.909	0.354	1.501	2.024	1.959	-0.003	-0.049	0.189
0.055	19.775	-0.015	0.010	0.089	0.320	0.955	0.859	0.304	1.542	2.027	1.955	-0.006	-0.038	0.193
0.055	19.797	-0.013	0.014	0.087	0.305	0.987	0.832	0.257	1.612	2.025	1.949	-0.011	-0.032	0.198
0.056	19.763	-0.006	0.015	0.086	0.290	1.015	0.837	0.263	1.617	2.027	1.959	-0.021	-0.021	0.205
0.056	19.791	-0.003	0.017	0.084	0.277	0.963	0.837	0.291	1.581	2.028	1.953	-0.026	-0.008	0.210
0.056	19.751	0.003	0.019	0.084	0.265	0.914	0.843	0.348	1.498	2.028	1.958	-0.037	0.002	0.219
0.056	19.781	0.003	0.017	0.083	0.255	0.849	0.864	0.445	1.457	2.027	1.956	-0.045	0.016	0.225
0.056	19.794	0.005	0.017	0.080	0.247	0.857	0.869	0.472	1.438	2.032	1.955	-0.059	0.028	0.232
0.057	19.757	0.001	0.018	0.078	0.241	0.882	0.863	0.464	1.489	2.028	1.961	-0.069	0.039	0.236
0.057	19.797	-0.002	0.016	0.074	0.238	0.919	0.841	0.389	1.576	2.033	1.962	-0.080	0.048	0.241
0.057	19.781	-0.003	0.017	0.070	0.236	0.934	0.838	0.300	1.599	2.033	1.960	-0.089	0.056	0.244
0.057	19.797	0.001	0.018	0.065	0.236	0.923	0.861	0.252	1.615	2.032	1.962	-0.095	0.061	0.247
0.057	19.788	0.005	0.018	0.060	0.235	0.858	0.880	0.282	1.586	2.028	1.961	-0.103	0.063	0.246
0.058	19.797	0.012	0.017	0.054	0.236	0.788	0.896	0.336	1.527	2.034	1.955	-0.106	0.063	0.245
0.058	19.791	0.017	0.020	0.050	0.236	0.731	0.928	0.398	1.481	2.037	1.955	-0.106	0.061	0.241
0.058	19.797	0.022	0.018	0.042	0.237	0.729	0.899	0.419	1.479	2.031	1.959	-0.107	0.054	0.237
0.058	19.781	0.024	0.020	0.039	0.241	0.753	0.869	0.404	1.556	2.026	1.963	-0.101	0.047	0.230
0.058	19.794	0.024	0.021	0.034	0.241	0.800	0.859	0.352	1.635	2.040	1.963	-0.097	0.035	0.225
0.059	19.791	0.021	0.020	0.031	0.244	0.811	0.848	0.337	1.702	2.031	1.959	-0.089	0.024	0.216
0.059	19.818	0.019	0.020	0.027	0.245	0.760	0.859	0.354	1.699	2.030	1.964	-0.082	0.010	0.210
0.059	19.794	0.017	0.020	0.025	0.250	0.695	0.887	0.397	1.662	2.027	1.952	-0.072	-0.003	0.201
0.059	19.800	0.017	0.018	0.024	0.252	0.605	0.894	0.477	1.597	2.033	1.957	-0.062	-0.019	0.192
0.059	19.788	0.019	0.021	0.025	0.254	0.560	0.916	0.536	1.587	2.032	1.961	-0.053	-0.033	0.183
0.060	19.803	0.023	0.020	0.030	0.255	0.569	0.876	0.561	1.616	2.023	1.962	-0.043	-0.049	0.177
0.060	19.803	0.026	0.021	0.035	0.256	0.605	0.844	0.522	1.690	2.034	1.960	-0.034	-0.063	0.171
0.060	19.803	0.030	0.021	0.044	0.255	0.642	0.802	0.459	1.771	2.028	1.963	-0.026	-0.076	0.165
0.060	19.806	0.029	0.023	0.054	0.253	0.644	0.800	0.398	1.796	2.023	1.965	-0.018	-0.087	0.160
0.060	19.803	0.031	0.023	0.066	0.249	0.632	0.798	0.380	1.803	2.035	1.966	-0.013	-0.096	0.157
0.061	19.809	0.026	0.024	0.077	0.244	0.589	0.832	0.412	1.723	2.032	1.963	-0.006	-0.103	0.152
0.061	19.806	0.027	0.026	0.090	0.240	0.555	0.838	0.425	1.675	2.038	1.972	-0.006	-0.109	0.149
0.061	19.821	0.023	0.028	0.106	0.234	0.526	0.862	0.427	1.682	2.042	1.961	-0.004	-0.111	0.145
0.061	19.809	0.023	0.029	0.120	0.225	0.531	0.823	0.421	1.731	2.037	1.966	-0.005	-0.111	0.143
0.061	19.821	0.025	0.031	0.133	0.216	0.550	0.824	0.379	1.794	2.041	1.973	-0.008	-0.108	0.140
0.062	19.809	0.028	0.032	0.145	0.208	0.569	0.765	0.338	1.865	2.043	1.969	-0.011	-0.104	0.139
0.062	19.824	0.029	0.034	0.158	0.198	0.548	0.738	0.344	1.872	2.040	1.959	-0.016	-0.097	0.137
0.062	19.839	0.027	0.034	0.167	0.188	0.505	0.761	0.367	1.848	2.036	1.967	-0.023	-0.090	0.137
0.062	19.809	0.021	0.036	0.177	0.179	0.451	0.752	0.436	1.808	2.029	1.961	-0.029	-0.080	0.133
0.062	19.821	0.019	0.035	0.183	0.170	0.431	0.763	0.471	1.774	2.036	1.973	-0.037	-0.070	0.131
0.063	19.806	0.012	0.037	0.191	0.160	0.448	0.788	0.483	1.778	2.033	1.970	-0.046	-0.056	0.130
0.063	19.849	0.012	0.038	0.196	0.154	0.444	0.763	0.473	1.799	2.034	1.969	-0.052	-0.043	0.128
0.063	19.833	0.014	0.041	0.200	0.147	0.497	0.729	0.427	1.834	2.032	1.967	-0.062	-0.031	0.127
0.063	19.836	0.012	0.044	0.203	0.143	0.497	0.722	0.420	1.835	2.042	1.973	-0.069	-0.018	0.128
0.063	19.833	0.013	0.046	0.206	0.139	0.485	0.717	0.443	1.792	2.039	1.971	-0.078	-0.007	0.130
0.064	19.846	0.015	0.050	0.211	0.137	0.462	0.752	0.480	1.716	2.040	1.969	-0.084	0.004	0.130
0.064	19.815	0.015	0.054	0.214	0.139	0.403	0.785	0.529	1.659	2.043	1.958	-0.091	0.014	0.133
0.064	19.830	0.015	0.060	0.216	0.140	0.372	0.820	0.553	1.609	2.041	1.963	-0.095	0.021	0.134
0.064	19.846	0.014	0.063	0.218	0.145	0.391	0.804	0.542	1.631	2.038	1.968	-0.100	0.027	0.137
0.064	19.830	0.009	0.067	0.220	0.151	0.411	0.773	0.512	1.669	2.042	1.967	-0.104	0.032	0.137
0.065	19.839	0.005	0.073	0.221	0.159	0.462	0.727	0.494	1.725	2.034	1.968	-0.106	0.035	0.140
0.065	19.839	0.004	0.076	0.221	0.168	0.469	0.687	0.470	1.748	2.034	1.972	-0.108	0.035	0.144
0.065	19.839	0.003	0.082	0.222	0.176	0.429	0.680	0.471	1.733	2.035	1.966	-0.106	0.034	0.143
0.065	19.806	0.003	0.086	0.222	0.187	0.374	0.719	0.516	1.689	2.045	1.966	-0.108	0.031	0.147
0.065	19.821	0.001	0.089	0.218	0.199	0.339	0.724	0.602	1.637	2.038	1.962	-0.106	0.029	0.148
0.066	19.803	0.002	0.092	0.213	0.212	0.343	0.752	0.669	1.597	2.039	1.966	-0.101	0.023	0.151
0.066	19.821	0.000	0.094	0.211	0.228	0.350	0.736	0.693	1.598	2.038	1.965	-0.100	0.018	0.152
0.066	19.827	-0.002	0.096	0.205	0.243	0.369	0.726	0.654	1.603	2.029	1.970	-0.095	0.011	0.153
0.066	19.821	-0.003	0.098	0.201	0.256	0.405	0.699	0.591	1.613	2.040	1.973	-0.092	0.004	0.155
0.066	19.806	-0.005	0.099	0.193	0.271	0.403	0.679	0.528	1.604	2.034	1.965	-0.086	-0.003	0.156
0.067	19.800	-0.004	0.101	0.184	0.284	0.395	0.678	0.489	1.551	2.037	1.968	-0.082	-0.009	0.158
0.067	19.818	-0.003	0.100	0.176	0.296	0.365	0.692	0.507	1.438	2.036	1.969	-0.074	-0.016	0.158
0.067	19.809	-0.002	0.100	0.168	0.307	0.347	0.708	0.570	1.368	2.037	1.970	-0.069	-0.022	0.160
0.067	19.830	0.001	0.100	0.162	0.315	0.347	0.726	0.655	1.346	2.035	1.971	-0.062	-0.027	0.163
0.067	19.815	0.002	0.102	0.153	0.323	0.350	0.744	0.668	1.342	2.040	1.968	-0.055	-0.033	0.164
0.068	19.827	0.005	0.102	0.147	0.328	0.365	0.706	0.640	1.426	2.031	1.970	-0.050	-0.036	0.166
0.068	19.800	0.009	0.105	0.140	0.333	0.369	0.679	0.574	1.495	2.029	1.971	-0.045	-0.039	0.169
0.068	19.812	0.010	0.106	0.132	0.336	0.365	0.658	0.530	1.545	2.029	1.974	-0.038	-0.039	0.173
0.068	19.785	0.012	0.105	0.125	0.340	0.352	0.648	0.512	1.544	2.036	1.967	-0.036	-0.041	0.176
0.068	19.839	0.013	0.105	0.120	0.341	0.350	0.675	0.585	1.480	2.030	1.964	-0.028	-0.040	0.178
0.069	19.794	0.014	0.103	0.113	0.342	0.355	0.698	0.690	1.387	2.037	1.976	-0.027	-0.040	0.182
0.069	19.806	0.014	0.101	0.108	0.341	0.374	0.725	0.778	1.340	2.035	1.970	-0.024	-0.037	0.184
0.069	19.781	0.017	0.102	0.103	0.340	0.392	0.730	0.812	1.298	2.037	1.980	-0.021	-0.035	0.188
0.069	19.806	0.020	0.102	0.098	0.337	0.423	0.701	0.784	1.328	2.027	1.969	-0.020	-0.032	0.191
0.069	19.800	0.023	0.101	0.094	0.333	0.424	0.663	0.692	1.368	2.040	1.977	-0.019	-0.030	0.192
0.070	19.815	0.027	0.101	0.088	0.331	0.400	0.634	0.606	1.408	2.030	1.980	-0.019	-0.024	0.197
0.070	19.775	0.031	0.101	0.087	0.322	0.384	0.631	0.601	1.428	2.039	1.969	-0.020	-0.020	0.202
0.070	19.781	0.034	0.100	0.080	0.317	0.387	0.642	0.632	1.402	2.030	1.971	-0.021	-0.014	0.203
0.070	19.781	0.036	0.100	0.076	0.309	0.392	0.680	0.692	1.351	2.030	1.972	-0.023	-0.009	0.205
0.070	19.785	0.038	0.097	0.074	0.296	0.421	0.701	0.764	1.288	2.041	1.983	-0.026	-0.004	0.207
0.071	19.791	0.038	0.095	0.070	0.287	0.446	0.715	0.765	1.276	2.031	1.980	-0.030	0.001	0.210
0.071	19.788	0.039	0.093	0.064	0.274	0.432	0.698	0.741	1.314	2.040	1.978	-0.034	0.007	0.210
0.071	19.794	0.042	0.091	0.060	0.259	0.422	0.690	0.689	1.325	2.036	1.971	-0.037	0.015	0.213
0.071	19.803	0.044	0.089	0.055	0.250	0.377	0.679	0.632	1.333	2.028	1.985	-0.041	0.015	0.215
0.071	19.781	0.045	0.091	0.049	0.239	0.342	0.682	0.605	1.356	2.027	1.980	-0.047	0.020	0.217
0.072	19.806	0.048	0.093	0.046	0.228	0.330	0.731	0.657	1.294	2.027	1.974	-0.052	0.019	0.216
0.072	19.809	0.051	0.096	0.042	0.219	0.338	0.747	0.734	1.260	2.030	1.981	-0.056	0.024	0.213
0.072	19.803	0.053	0.100	0.035	0.210	0.347	0.760	0.824	1.254	2.028	1.983	-0.059	0.024	0.210
0.072	19.806	0.054	0.105	0.033	0.204	0.356	0.729	0.853	1.257	2.037	1.982	-0.065	0.022	0.210
0.072	19.803	0.054	0.109	0.029	0.198	0.352	0.706	0.826	1.288	2.030	1.975	-0.068	0.020	0.206
0.073	19.809	0.056	0.112	0.027	0.195	0.331	0.682	0.778	1.341	2.031	1.970	-0.071	0.016	0.205
0.073	19.809	0.057	0.116	0.024	0.195	0.315	0.683	0.739	1.368	2.029	1.978	-0.075	0.009	0.203
0.073	19.815	0.058	0.117	0.026	0.197	0.279	0.701	0.769	1.362	2.029	1.975	-0.075	0.000	0.201
0.073	19.803	0.058	0.116	0.024	0.201	0.267	0.723	0.811	1.310	2.031	1.982	-0.079	-0.008	0.199
0.073	19.809	0.057	0.115	0.027	0.208	0.241	0.714	0.898	1.224	2.027	1.979	-0.080	-0.018	0.195
0.074	19.812	0.059	0.115	0.032	0.217	0.242	0.718	0.944	1.198	2.030	1.981	-0.081	-0.031	0.192
0.074	19.833	0.060	0.112	0.033	0.228	0.234	0.696	0.940	1.189	2.027	1.979	-0.079	-0.044	0.189
0.074	19.818	0.062	0.109	0.037	0.240	0.231	0.655	0.854	1.232	2.035	1.979	-0.078	-0.057	0.187
0.074	19.846	0.062	0.106	0.045	0.252	0.226	0.627	0.812	1.272	2.028	1.977	-0.080	-0.072	0.185
0.074	19.827	0.061	0.100	0.052	0.265	0.220	0.591	0.775	1.292	2.029	1.983	-0.079	-0.081	0.183
0.075	19.858	0.060	0.097	0.061	0.278	0.199	0.594	0.752	1.280	2.024	1.985	-0.078	-0.089	0.179
0.075	19.827	0.057	0.093	0.071	0.290	0.183	0.605	0.833	1.245	2.031	1.980	-0.078	-0.106	0.177
0.075	19.833	0.055	0.087	0.078	0.300	0.163	0.586	0.912	1.217	2.033	1.979	-0.076	-0.115	0.178
0.075	19.843	0.052	0.083	0.087	0.309	0.153	0.574	0.960	1.214	2.026	1.985	-0.075	-0.125	0.174
0.075	19.827	0.049	0.079	0.099	0.317	0.138	0.559	0.953	1.273	2.032	1.976	-0.076	-0.131	0.177
0.076	19.833	0.047	0.075	0.109	0.323	0.129	0.532	0.886	1.326	2.033	1.985	-0.074	-0.136	0.171
0.076	19.858	0.047	0.071	0.121	0.325	0.149	0.530	0.882	1.386	2.035	1.986	-0.075	-0.138	0.169
0.076	19.818	0.044	0.067	0.133	0.328	0.171	0.523	0.866	1.407	2.025	1.988	-0.078	-0.139	0.168
0.076	19.833	0.041	0.066	0.144	0.327	0.204	0.532	0.917	1.374	2.045	1.985	-0.077	-0.136	0.166
0.076	19.839	0.038	0.063	0.153	0.324	0.207	0.555	0.942	1.322	2.043	1.988	-0.077	-0.133	0.162
0.077	19.830	0.035	0.061	0.165	0.318	0.214	0.562	0.989	1.268	2.043	1.984	-0.080	-0.125	0.160
0.077	19.821	0.029	0.063	0.175	0.310	0.204	0.555	0.979	1.212	2.045	1.984	-0.080	-0.117	0.157
0.077	19.824	0.026	0.061	0.185	0.301	0.202	0.538	0.983	1.210	2.036	1.983	-0.086	-0.103	0.153
0.077	19.803	0.025	0.063	0.194	0.289	0.207	0.547	0.947	1.225	2.043	1.989	-0.089	-0.092	0.151
0.077	19.839	0.022	0.062	0.203	0.276	0.220	0.525	0.947	1.257	2.043	1.990	-0.092	-0.077	0.147
0.078	19.821	0.021	0.065	0.208	0.263	0.227	0.555	0.951	1.270	2.041	1.985	-0.096	-0.062	0.143
0.078	19.833	0.020	0.066	0.216	0.250	0.241	0.572	1.011	1.271	2.035	1.989	-0.100	-0.046	0.140
0.078	19.815	0.019	0.070	0.220	0.237	0.253	0.579	1.045	1.237	2.048	1.980	-0.105	-0.030	0.137
0.078	19.846	0.016	0.073	0.224	0.226	0.280	0.559	1.058	1.189	2.046	1.997	-0.109	-0.015	0.134
0.078	19.821	0.013	0.075	0.228	0.217	0.308	0.526	1.067	1.180	2.038	1.988	-0.114	-0.001	0.131
0.079	19.833	0.012	0.078	0.230	0.210	0.328	0.492	1.040	1.175	2.028	1.981	-0.116	0.013	0.128
0.079	19.824	0.012	0.081	0.231	0.204	0.350	0.461	0.990	1.195	2.044	1.988	-0.120	0.023	0.128
0.079	19.821	0.010	0.084	0.230	0.200	0.348	0.457	0.984	1.211	2.041	1.981	-0.122	0.035	0.126
0.079	19.827	0.012	0.087	0.228	0.199	0.326	0.444	0.966	1.225	2.037	1.987	-0.125	0.042	0.125
0.079	19.830	0.010	0.093	0.223	0.199	0.312	0.446	0.982	1.196	2.046	1.987	-0.128	0.048	0.126
0.080	19.824	0.010	0.094	0.217	0.201	0.284	0.437	1.004	1.172	2.041	1.991	-0.130	0.052	0.127
0.080	19.836	0.008	0.097	0.209	0.204	0.305	0.436	1.009	1.160	2.032	1.984	-0.130	0.053	0.129
0.080	19.833	0.005	0.098	0.198	0.209	0.344	0.426	1.011	1.131	2.034	1.988	-0.131	0.052	0.131
0.080	19.818	0.003	0.097	0.185	0.217	0.402	0.401	1.002	1.134	2.041	1.989	-0.131	0.047	0.135
0.080	19.858	0.003	0.099	0.172	0.227	0.450	0.385	1.003	1.131	2.045	1.992	-0.128	0.041	0.139
0.081	19.836	0.002	0.099	0.155	0.239	0.470	0.403	1.014	1.115	2.050	1.993	-0.129	0.032	0.145
0.081	19.864	-0.001	0.094	0.137	0.252	0.448	0.400	1.033	1.118	2.054	1.994	-0.125	0.023	0.151
0.081	19.839	0.000	0.090	0.122	0.267	0.419	0.408	1.050	1.112	2.043	1.990	-0.124	0.011	0.158
0.081	19.843	-0.004	0.087	0.104	0.281	0.411	0.439	1.067	1.065	2.040	1.994	-0.121	0.001	0.164
0.081	19.839	-0.003	0.082	0.089	0.295	0.427	0.407	1.083	1.004	2.049	1.994	-0.118	-0.013	0.171
0.082	19.858	-0.006	0.083	0.075	0.310	0.474	0.412	1.113	0.959	2.051	1.988	-0.115	-0.024	0.178
0.082	19.879	-0.008	0.079	0.064	0.322	0.541	0.398	1.125	0.923	2.043	1.989	-0.112	-0.037	0.187
0.082	19.846	-0.009	0.080	0.053	0.335	0.594	0.395	1.129	0.913	2.047	1.993	-0.108	-0.049	0.194
0.082	19.858	-0.007	0.077	0.047	0.344	0.620	0.424	1.108	0.951	2.041	1.992	-0.103	-0.060	0.201
0.082	19.846	-0.008	0.076	0.041	0.351	0.594	0.453	1.086	0.972	2.045	1.992	-0.096	-0.069	0.209
0.083	19.858	-0.001	0.075	0.038	0.356	0.547	0.463	1.120	0.961	2.051	1.995	-0.091	-0.076	0.215
0.083	19.843	0.004	0.072	0.037	0.358	0.534	0.489	1.160	0.899	2.051	2.000	-0.085	-0.082	0.219
0.083	19.852	0.006	0.070	0.040	0.358	0.533	0.494	1.221	0.856	2.063	1.991	-0.080	-0.084	0.223
0.083	19.843	0.010	0.070	0.043	0.355	0.579	0.487	1.235	0.832	2.046	1.990	-0.074	-0.084	0.227
0.083	19.855	0.010	0.068	0.050	0.350	0.639	0.493	1.224	0.831	2.054	1.999	-0.069	-0.083	0.231
0.084	19.870	0.010	0.067	0.057	0.343	0.656	0.449	1.186	0.873	2.047	1.991	-0.063	-0.077	0.236
0.084	19.885	0.011	0.068	0.065	0.332	0.671	0.441	1.162	0.878	2.048	1.988	-0.060	-0.071	0.238
0.084	19.885	0.011	0.069	0.078	0.321	0.622	0.426	1.159	0.888	2.050	1.989	-0.054	-0.061	0.241
0.084	19.904	0.013	0.072	0.089	0.305	0.597	0.436	1.203	0.873	2.055	1.988	-0.049	-0.050	0.242
0.084	19.897	0.018	0.074	0.102	0.290	0.559	0.429	1.223	0.870	2.052	1.992	-0.046	-0.037	0.244
0.085	19.888	0.021	0.077	0.113	0.274	0.578	0.414	1.221	0.873	2.050	1.991	-0.044	-0.024	0.246
0.085	19.913	0.025	0.080	0.128	0.259	0.577	0.409	1.200	0.869	2.061	1.988	-0.043	-0.008	0.246
0.085	19.904	0.027	0.081	0.137	0.242	0.631	0.402	1.161	0.847	2.054	1.998	-0.042	0.007	0.248
0.085	19.904	0.028	0.079	0.149	0.227	0.610	0.364	1.127	0.845	2.049	1.996	-0.041	0.022	0.248
0.085	19.901	0.029	0.082	0.157	0.214	0.618	0.389	1.091	0.839	2.042	1.993	-0.042	0.037	0.246
0.086	19.901	0.030	0.076	0.168	0.203	0.572	0.371	1.077	0.827	2.056	1.998	-0.044	0.051	0.249
0.086	19.913	0.030	0.075	0.173	0.193	0.554	0.354	1.101	0.829	2.053	2.000	-0.045	0.063	0.248
0.086	19.904	0.033	0.073	0.179	0.187	0.518	0.342	1.106	0.846	2.063	1.993	-0.049	0.074	0.249
0.086	19.904	0.036	0.070	0.179	0.182	0.500	0.325	1.114	0.821	2.051	1.997	-0.050	0.083	0.245
0.086	19.904	0.042	0.068	0.182	0.181	0.506	0.322	1.101	0.835	2.052	1.992	-0.055	0.090	0.245
0.087	19.901	0.042	0.067	0.179	0.181	0.504	0.298	1.094	0.874	2.051	1.993	-0.057	0.094	0.242
0.087	19.916	0.043	0.065	0.175	0.182	0.518	0.282	1.081	0.921	2.054	1.995	-0.060	0.095	0.239
0.087	19.916	0.045	0.065	0.173	0.186	0.537	0.275	1.082	0.962	2.059	1.995	-0.063	0.096	0.236
0.087	19.907	0.044	0.065	0.165	0.191	0.550	0.256	1.074	0.977	2.054	2.000	-0.065	0.089	0.230
0.087	19.931	0.044	0.064	0.161	0.199	0.568	0.243	1.068	0.992	2.054	1.994	-0.065	0.084	0.229
0.088	19.913	0.047	0.063	0.153	0.207	0.604	0.223	1.066	0.997	2.056	1.997	-0.065	0.076	0.223
0.088	19.907	0.049	0.063	0.146	0.215	0.633	0.217	1.052	0.959	2.055	2.003	-0.064	0.064	0.219
0.088	19.943	0.053	0.064	0.139	0.228	0.664	0.204	1.052	0.924	2.059	1.999	-0.064	0.052	0.214
0.088	19.937	0.055	0.065	0.132	0.239	0.670	0.180	1.005	0.932	2.052	1.997	-0.062	0.039	0.212
0.088	19.928	0.059	0.066	0.126	0.249	0.676	0.174	0.955	0.926	2.063	1.996	-0.061	0.025	0.208
0.089	19.937	0.060	0.068	0.122	0.260	0.652	0.154	0.912	0.969	2.057	1.992	-0.060	0.011	0.206
0.089	19.922	0.061	0.067	0.117	0.266	0.667	0.135	0.888	1.027	2.048	1.994	-0.054	-0.004	0.202
0.089	19.925	0.063	0.067	0.117	0.274	0.699	0.102	0.902	1.069	2.055	1.996	-0.055	-0.018	0.201
0.089	19.937	0.061	0.068	0.118	0.278	0.707	0.084	0.957	1.067	2.054	1.995	-0.053	-0.029	0.198
0.089	19.949	0.062	0.069	0.122	0.282	0.738	0.071	0.982	1.058	2.047	1.994	-0.052	-0.040	0.197
0.090	19.949	0.063	0.067	0.127	0.280	0.752	0.073	0.999	0.995	2.052	1.999	-0.051	-0.048	0.197
0.090	19.943	0.063	0.068	0.135	0.282	0.749	0.058	0.987	1.007	2.056	1.992	-0.052	-0.056	0.195
0.090	19.943	0.065	0.068	0.145	0.283	0.750	0.078	0.958	1.025	2.052	1.993	-0.052	-0.062	0.196
0.090	19.934	0.066	0.068	0.154	0.278	0.755	0.074	0.938	1.068	2.055	1.997	-0.055	-0.065	0.191
0.090	19.940	0.066	0.068	0.166	0.277	0.778	0.074	0.906	1.092	2.062	1.997	-0.058	-0.065	0.194
0.091	19.958	0.063	0.065	0.178	0.274	0.796	0.046	0.914	1.094	2.052	1.994	-0.060	-0.064	0.193
0.091	19.946	0.060	0.064	0.188	0.269	0.812	0.041	0.929	1.051	2.053	1.998	-0.063	-0.058	0.193
0.091	19.962	0.056	0.062	0.203	0.267	0.804	0.029	0.977	0.981	2.047	1.992	-0.071	-0.053	0.194
0.091	19.965	0.051	0.061	0.215	0.267	0.800	0.034	1.015	0.957	2.058	1.996	-0.075	-0.043	0.189
0.091	19.962	0.049	0.058	0.227	0.261	0.804	0.027	1.019	0.950	2.057	1.994	-0.082	-0.037	0.189
0.092	19.955	0.047	0.056	0.239	0.258	0.816	0.044	0.989	1.026	2.049	1.992	-0.084	-0.028	0.184
0.092	19.949	0.046	0.051	0.250	0.255	0.849	0.051	0.955	1.060	2.059	1.989	-0.090	-0.020	0.182
0.092	19.955	0.046	0.050	0.261	0.253	0.874	0.050	0.935	1.093	2.053	1.992	-0.094	-0.013	0.177
0.092	19.958	0.046	0.049	0.267	0.252	0.880	0.049	0.954	1.107	2.053	1.990	-0.095	-0.004	0.173
0.092	19.971	0.044	0.049	0.274	0.251	0.850	0.044	0.973	1.076	2.051	1.982	-0.097	0.001	0.166
0.093	19.977	0.041	0.049	0.277	0.252	0.835	0.060	1.009	1.068	2.055	1.984	-0.101	0.007	0.162
0.093	19.977	0.038	0.051	0.279	0.253	0.808	0.083	0.989	1.062	2.060	1.992	-0.100	0.008	0.151
0.093	19.965	0.033	0.052	0.281	0.256	0.805	0.106	0.938	1.080	2.072	1.991	-0.100	0.010	0.148
0.093	19.968	0.029	0.053	0.281	0.259	0.838	0.123	0.864	1.081	2.057	1.993	-0.095	0.008	0.138
0.093	19.977	0.025	0.055	0.280	0.263	0.873	0.125	0.795	1.128	2.056	1.996	-0.092	0.004	0.135
0.094	19.986	0.022	0.057	0.278	0.267	0.895	0.137	0.796	1.149	2.052	1.994	-0.086	0.000	0.121
0.094	19.968	0.021	0.060	0.277	0.272	0.897	0.137	0.839	1.129	2.057	1.992	-0.081	-0.005	0.116
0.094	19.971	0.019	0.064	0.273	0.277	0.882	0.145	0.906	1.059	2.056	1.995	-0.073	-0.012	0.106
0.094	19.974	0.018	0.068	0.268	0.286	0.839	0.155	0.914	1.041	2.065	1.984	-0.066	-0.018	0.098
0.094	19.980	0.016	0.074	0.264	0.292	0.807	0.175	0.869	1.008	2.062	1.989	-0.055	-0.026	0.091
0.095	19.983	0.016	0.078	0.259	0.301	0.790	0.170	0.799	1.011	2.056	1.994	-0.051	-0.035	0.087
0.095	19.977	0.013	0.084	0.250	0.310	0.778	0.169	0.752	1.087	2.054	1.986	-0.043	-0.038	0.083
0.095	19.992	0.012	0.091	0.239	0.318	0.788	0.179	0.718	1.100	2.056	2.000	-0.036	-0.041	0.077
0.095	19.995	0.011	0.095	0.230	0.328	0.836	0.157	0.755	1.066	2.061	1.998	-0.031	-0.046	0.080
0.095	19.992	0.010	0.098	0.217	0.336	0.827	0.145	0.825	1.069	2.057	1.995	-0.025	-0.048	0.077
0.096	19.974	0.011	0.105	0.205	0.344	0.826	0.171	0.868	1.031	2.060	1.986	-0.022	-0.048	0.081
0.096	19.980	0.009	0.108	0.192	0.353	0.808	0.169	0.881	1.031	2.062	1.991	-0.020	-0.046	0.088
0.096	19.977	0.010	0.109	0.178	0.359	0.800	0.215	0.817	1.047	2.051	1.988	-0.020	-0.044	0.092
0.096	19.983	0.007	0.111	0.161	0.365	0.786	0.214	0.719	1.103	2.053	1.984	-0.019	-0.036	0.099
0.096	19.968	0.005	0.112	0.147	0.370	0.813	0.202	0.634	1.141	2.067	1.986	-0.022	-0.030	0.109
0.097	19.962	0.002	0.114	0.137	0.372	0.843	0.177	0.609	1.175	2.062	1.985	-0.021	-0.023	0.119
0.097	19.952	0.000	0.111	0.121	0.373	0.876	0.138	0.613	1.181	2.066	1.985	-0.024	-0.013	0.131
0.097	19.934	-0.000	0.110	0.109	0.370	0.887	0.124	0.696	1.156	2.061	1.988	-0.027	-0.005	0.143
0.097	19.962	-0.004	0.104	0.098	0.365	0.880	0.106	0.759	1.124	2.060	1.985	-0.030	0.002	0.156
0.097	19.937	-0.003	0.100	0.089	0.355	0.871	0.106	0.754	1.112	2.061	1.984	-0.032	0.012	0.168
0.098	19.962	-0.004	0.093	0.082	0.346	0.862	0.097	0.713	1.153	2.063	1.988	-0.033	0.019	0.182
0.098	19.940	-0.003	0.087	0.077	0.331	0.884	0.107	0.629	1.220	2.064	1.987	-0.037	0.025	0.192
0.098	19.952	-0.003	0.079	0.074	0.315	0.925	0.108	0.531	1.282	2.064	1.984	-0.037	0.029	0.203
0.098	19.925	-0.001	0.073	0.072	0.296	0.969	0.105	0.516	1.296	2.066	1.989	-0.036	0.033	0.213
0.098	19.937	-0.004	0.065	0.071	0.277	0.996	0.085	0.571	1.305	2.059	1.992	-0.034	0.033	0.221
0.099	19.904	-0.003	0.061	0.073	0.258	0.985	0.065	0.637	1.270	2.063	1.978	-0.031	0.032	0.227
0.099	19.928	-0.003	0.059	0.077	0.239	0.959	0.061	0.681	1.237	2.058	1.985	-0.026	0.030	0.231
0.099	19.897	-0.001	0.054	0.081	0.220	0.943	0.041	0.682	1.220	2.066	1.983	-0.021	0.025	0.234
0.099	19.910	-0.000	0.052	0.087	0.203	0.940	0.037	0.621	1.240	2.069	1.988	-0.013	0.020	0.235
0.099	19.913	0.001	0.049	0.091	0.187	0.934	0.037	0.559	1.272	2.064	1.987	-0.007	0.013	0.235
0.100	19.879	0.007	0.044	0.097	0.174	0.980	0.022	0.504	1.325	2.069	1.986	0.001	0.003	0.233
0.100	19.870	0.006	0.045	0.104	0.162	1.013	0.026	0.504	1.346	2.057	1.982	0.009	-0.006	0.230
0.100	19.894	0.007	0.043	0.112	0.153	1.042	0.034	0.531	1.344	2.074	1.983	0.018	-0.012	0.226
0.100	19.873	0.007	0.045	0.120	0.146	1.043	0.068	0.567	1.343	2.063	1.981	0.024	-0.020	0.221
0.100	19.879	0.007	0.041	0.126	0.141	1.052	0.078	0.606	1.342	2.067	1.992	0.031	-0.027	0.217
0.101	19.873	0.005	0.046	0.133	0.138	1.032	0.093	0.604	1.306	2.078	1.992	0.036	-0.032	0.211
0.101	19.867	0.007	0.045	0.139	0.137	1.035	0.077	0.545	1.274	2.076	1.985	0.043	-0.036	0.205
0.101	19.882	0.009	0.051	0.145	0.135	1.031	0.083	0.483	1.298	2.070	1.985	0.044	-0.039	0.200
0.101	19.867	0.011	0.050	0.148	0.135	1.064	0.046	0.426	1.321	2.074	1.987	0.047	-0.041	0.195
0.101	19.867	0.014	0.056	0.150	0.135	1.082	0.059	0.404	1.361	2.075	1.991	0.049	-0.040	0.190
0.102	19.891	0.019	0.056	0.151	0.134	1.106	0.035	0.429	1.398	2.068	1.988	0.049	-0.037	0.187
0.102	19.864	0.019	0.061	0.150	0.132	1.105	0.053	0.470	1.403	2.072	1.983	0.044	-0.031	0.180
0.102	19.876	0.019	0.058	0.149	0.129	1.094	0.058	0.489	1.404	2.074	1.993	0.041	-0.027	0.179
0.102	19.864	0.021	0.061	0.147	0.126	1.077	0.071	0.493	1.428	2.075	1.985	0.034	-0.017	0.177
0.102	19.882	0.019	0.060	0.144	0.123	1.062	0.087	0.416	1.423	2.071	1.983	0.028	-0.012	0.176
0.103	19.873	0.021	0.056	0.141	0.118	1.070	0.089	0.343	1.419	2.072	1.982	0.021	-0.004	0.175
0.103	19.885	0.018	0.053	0.136	0.113	1.068	0.117	0.282	1.442	2.076	1.994	0.011	0.004	0.175
0.103	19.849	0.020	0.048	0.130	0.108	1.062	0.149	0.281	1.429	2.080	1.980	0.002	0.011	0.176
0.103	19.870	0.020	0.042	0.125	0.103	1.068	0.161	0.322	1.415	2.077	1.983	-0.007	0.019	0.176
0.103	19.852	0.022	0.038	0.119	0.099	1.048	0.184	0.356	1.408	2.075	1.988	-0.017	0.025	0.178
0.104	19.864	0.023	0.034	0.113	0.095	1.019	0.204	0.375	1.413	2.075	1.985	-0.025	0.030	0.178
0.104	19.858	0.024	0.028	0.109	0.094	1.005	0.189	0.353	1.428	2.079	1.986	-0.033	0.033	0.180
0.104	19.839	0.022	0.023	0.103	0.094	1.016	0.197	0.303	1.468	2.075	1.979	-0.039	0.034	0.182
0.104	19.870	0.019	0.020	0.099	0.096	0.999	0.210	0.270	1.525	2.087	1.986	-0.045	0.033	0.184
0.104	19.855	0.018	0.016	0.097	0.101	0.998	0.180	0.242	1.535	2.077	1.975	-0.051	0.032	0.185
0.105	19.855	0.016	0.014	0.094	0.103	0.993	0.201	0.259	1.528	2.079	1.988	-0.052	0.026	0.185
0.105	19.858	0.018	0.011	0.092	0.109	0.998	0.195	0.301	1.532	2.075	1.986	-0.054	0.019	0.186
0.105	19.855	0.020	0.009	0.092	0.117	1.010	0.214	0.346	1.516	2.079	1.979	-0.053	0.012	0.184
0.105	19.858	0.020	0.008	0.092	0.127	1.026	0.235	0.357	1.537	2.083	1.976	-0.052	0.002	0.181
0.105	19.864	0.020	0.004	0.093	0.134	1.044	0.239	0.332	1.572	2.081	1.983	-0.050	-0.007	0.182
0.106	19.852	0.021	0.005	0.095	0.144	1.033	0.247	0.281	1.619	2.076	1.983	-0.046	-0.017	0.176
0.106	19.849	0.022	0.007	0.098	0.152	1.042	0.263	0.240	1.646	2.083	1.983	-0.043	-0.025	0.173
0.106	19.830	0.017	0.006	0.100	0.161	1.006	0.259	0.191	1.619	2.076	1.982	-0.038	-0.035	0.165
0.106	19.849	0.014	0.008	0.102	0.168	1.025	0.255	0.213	1.623	2.084	1.980	-0.033	-0.041	0.162
0.106	19.827	0.009	0.009	0.103	0.175	1.010	0.255	0.216	1.608	2.078	1.989	-0.029	-0.049	0.156
0.107	19.839	0.005	0.011	0.104	0.180	0.987	0.241	0.215	1.604	2.083	1.981	-0.025	-0.054	0.150
0.107	19.836	0.000	0.014	0.104	0.186	0.973	0.250	0.219	1.647	2.075	1.981	-0.022	-0.057	0.145
0.107	19.843	-0.001	0.017	0.105	0.188	0.972	0.225	0.208	1.674	2.087	1.982	-0.022	-0.057	0.139
0.107	19.821	-0.002	0.018	0.105	0.189	0.963	0.211	0.190	1.674	2.078	1.982	-0.020	-0.056	0.134
0.107	19.852	-0.001	0.020	0.104	0.193	0.985	0.189	0.162	1.634	2.081	1.985	-0.022	-0.049	0.129
0.108	19.833	-0.001	0.022	0.104	0.195	0.979	0.174	0.148	1.588	2.073	1.978	-0.024	-0.045	0.126
0.108	19.846	-0.001	0.022	0.102	0.197	0.957	0.163	0.155	1.569	2.081	1.984	-0.029	-0.037	0.124
0.108	19.836	-0.001	0.025	0.100	0.202	0.958	0.170	0.135	1.577	2.075	1.976	-0.035	-0.026	0.121
0.108	19.846	-0.004	0.026	0.098	0.206	0.956	0.170	0.129	1.615	2.079	1.983	-0.041	-0.013	0.123
0.108	19.858	-0.006	0.028	0.097	0.213	0.982	0.178	0.128	1.638	2.083	1.982	-0.048	0.001	0.119
0.109	19.861	-0.010	0.030	0.096	0.219	0.963	0.203	0.128	1.641	2.092	1.985	-0.057	0.014	0.119
0.109	19.870	-0.012	0.033	0.095	0.226	0.961	0.227	0.110	1.636	2.090	1.982	-0.067	0.030	0.120
0.109	19.864	-0.014	0.036	0.093	0.235	0.923	0.260	0.143	1.600	2.068	1.986	-0.075	0.044	0.121
0.109	19.864	-0.012	0.040	0.094	0.243	0.923	0.251	0.122	1.590	2.080	1.980	-0.084	0.058	0.123
0.109	19.867	-0.012	0.044	0.091	0.254	0.930	0.234	0.111	1.560	2.083	1.986	-0.093	0.071	0.123
0.110	19.870	-0.012	0.047	0.089	0.262	0.944	0.220	0.110	1.555	2.075	1.983	-0.101	0.082	0.125
0.110	19.879	-0.010	0.048	0.086	0.272	0.965	0.207	0.096	1.534	2.080	1.987	-0.108	0.091	0.126
0.110	19.882	-0.012	0.050	0.081	0.280	0.974	0.178	0.093	1.543	2.089	1.981	-0.114	0.100	0.126
0.110	19.864	-0.013	0.050	0.075	0.289	0.963	0.179	0.092	1.584	2.081	1.981	-0.118	0.104	0.128
0.110	19.852	-0.014	0.050	0.069	0.297	0.949	0.174	0.054	1.609	2.081	1.979	-0.120	0.108	0.128
0.111	19.852	-0.013	0.047	0.062	0.303	0.938	0.189	0.028	1.635	2.084	1.978	-0.121	0.108	0.124
0.111	19.873	-0.012	0.046	0.055	0.310	0.906	0.194	-0.003	1.635	2.083	1.976	-0.120	0.106	0.124
0.111	19.864	-0.007	0.044	0.041	0.317	0.888	0.230	-0.017	1.634	2.088	1.976	-0.118	0.102	0.124
0.111	19.876	-0.003	0.042	0.031	0.323	0.896	0.271	0.008	1.624	2.078	1.980	-0.114	0.096	0.121
0.111	19.873	0.003	0.039	0.024	0.328	0.937	0.279	0.024	1.632	2.083	1.980	-0.110	0.087	0.124
0.112	19.891	0.007	0.035	0.013	0.333	0.960	0.299	0.037	1.636	2.084	1.975	-0.102	0.078	0.122
0.112	19.894	0.005	0.032	0.005	0.338	0.958	0.291	0.016	1.625	2.082	1.982	-0.098	0.067	0.123
0.112	19.867	0.003	0.029	-0.003	0.345	0.918	0.313	-0.017	1.637	2.081	1.980	-0.088	0.054	0.125
0.112	19.858	0.003	0.026	-0.011	0.353	0.881	0.325	-0.045	1.621	2.077	1.985	-0.081	0.041	0.123
0.112	19.882	0.001	0.023	-0.016	0.357	0.841	0.342	-0.094	1.593	2.072	1.978	-0.073	0.028	0.124
0.113	19.879	0.003	0.019	-0.022	0.360	0.813	0.372	-0.119	1.598	2.076	1.983	-0.064	0.016	0.126
0.113	19.864	0.009	0.017	-0.024	0.365	0.802	0.414	-0.136	1.567	2.087	1.981	-0.054	0.004	0.128
0.113	19.870	0.016	0.012	-0.028	0.361	0.815	0.425	-0.124	1.540	2.083	1.982	-0.050	-0.006	0.131
0.113	19.849	0.026	0.008	-0.026	0.364	0.841	0.438	-0.087	1.547	2.079	1.976	-0.045	-0.016	0.134
0.113	19.864	0.031	0.006	-0.024	0.364	0.851	0.451	-0.085	1.599	2.076	1.984	-0.039	-0.023	0.137
0.114	19.839	0.032	0.006	-0.022	0.356	0.849	0.437	-0.110	1.649	2.076	1.978	-0.037	-0.027	0.142
0.114	19.879	0.031	0.005	-0.017	0.350	0.814	0.437	-0.120	1.660	2.078	1.983	-0.034	-0.031	0.144
0.114	19.852	0.029	0.003	-0.009	0.343	0.772	0.431	-0.096	1.687	2.079	1.970	-0.035	-0.032	0.144
0.114	19.867	0.028	0.003	0.001	0.333	0.740	0.456	-0.040	1.665	2.070	1.978	-0.033	-0.031	0.147
0.114	19.839	0.030	0.003	0.010	0.322	0.724	0.456	-0.021	1.613	2.072	1.984	-0.039	-0.027	0.150
0.115	19.849	0.032	0.004	0.018	0.310	0.704	0.470	-0.007	1.633	2.076	1.976	-0.037	-0.020	0.151
0.115	19.843	0.038	0.004	0.028	0.299	0.699	0.478	-0.071	1.666	2.087	1.985	-0.041	-0.016	0.153
0.115	19.846	0.044	0.005	0.039	0.288	0.704	0.501	-0.088	1.702	2.078	1.979	-0.048	-0.007	0.157
0.115	19.858	0.045	0.004	0.048	0.277	0.675	0.520	-0.145	1.763	2.077	1.977	-0.054	0.005	0.156
0.115	19.849	0.047	0.007	0.057	0.266	0.675	0.534	-0.196	1.747	2.077	1.976	-0.061	0.014	0.158
0.116	19.855	0.043	0.005	0.064	0.256	0.646	0.504	-0.227	1.701	2.079	1.981	-0.065	0.027	0.159
0.116	19.858	0.040	0.008	0.069	0.245	0.604	0.509	-0.216	1.684	2.082	1.978	-0.072	0.033	0.156
0.116	19.843	0.034	0.006	0.070	0.236	0.571	0.499	-0.220	1.641	2.082	1.985	-0.077	0.044	0.161
0.116	19.849	0.032	0.010	0.074	0.229	0.547	0.513	-0.184	1.649	2.085	1.978	-0.083	0.051	0.160
0.116	19.839	0.034	0.010	0.070	0.223	0.540	0.518	-0.203	1.659	2.084	1.975	-0.087	0.059	0.163
0.117	19.839	0.039	0.011	0.071	0.218	0.541	0.528	-0.222	1.700	2.098	1.974	-0.093	0.063	0.162
0.117	19.849	0.045	0.012	0.064	0.215	0.542	0.546	-0.208	1.730	2.083	1.975	-0.095	0.067	0.160
0.117	19.843	0.049	0.012	0.059	0.214	0.545	0.540	-0.194	1.749	2.090	1.972	-0.098	0.068	0.160
0.117	19.827	0.051	0.014	0.049	0.213	0.513	0.535	-0.172	1.729	2.083	1.972	-0.095	0.069	0.159
0.117	19.830	0.049	0.013	0.040	0.214	0.496	0.496	-0.133	1.697	2.079	1.976	-0.097	0.064	0.158
0.118	19.827	0.043	0.016	0.029	0.216	0.483	0.480	-0.126	1.732	2.080	1.976	-0.095	0.060	0.157
0.118	19.833	0.035	0.016	0.023	0.219	0.519	0.456	-0.096	1.749	2.088	1.971	-0.095	0.053	0.156
0.118	19.830	0.028	0.014	0.009	0.222	0.518	0.444	-0.120	1.744	2.083	1.978	-0.091	0.046	0.153
0.118	19.824	0.024	0.015	0.005	0.229	0.533	0.452	-0.124	1.772	2.077	1.977	-0.088	0.037	0.150
0.118	19.827	0.025	0.011	-0.004	0.236	0.535	0.456	-0.150	1.786	2.082	1.975	-0.082	0.028	0.148
0.119	19.827	0.027	0.011	-0.008	0.242	0.525	0.459	-0.180	1.755	2.085	1.975	-0.080	0.019	0.147
0.119	19.803	0.030	0.007	-0.011	0.249	0.525	0.432	-0.182	1.693	2.071	1.972	-0.077	0.008	0.144
0.119	19.815	0.032	0.004	-0.015	0.259	0.520	0.403	-0.182	1.640	2.075	1.973	-0.074	0.001	0.141
0.119	19.809	0.031	0.000	-0.015	0.267	0.541	0.389	-0.157	1.611	2.077	1.976	-0.068	-0.011	0.136
0.119	19.812	0.027	-0.004	-0.015	0.276	0.572	0.387	-0.116	1.627	2.083	1.978	-0.064	-0.019	0.133
0.120	19.818	0.019	-0.008	-0.014	0.286	0.592	0.414	-0.151	1.647	2.073	1.981	-0.061	-0.027	0.129
0.120	19.809	0.013	-0.013	-0.010	0.294	0.609	0.438	-0.202	1.682	2.079	1.975	-0.058	-0.033	0.125
0.120	19.809	0.008	-0.019	-0.005	0.301	0.650	0.456	-0.227	1.720	2.080	1.979	-0.055	-0.038	0.121
0.120	19.821	0.007	-0.022	0.000	0.307	0.652	0.460	-0.260	1.714	2.081	1.973	-0.054	-0.040	0.117
0.120	19.791	0.007	-0.027	0.006	0.312	0.618	0.492	-0.231	1.664	2.080	1.977	-0.052	-0.043	0.114
0.121	19.788	0.009	-0.032	0.015	0.315	0.571	0.484	-0.173	1.592	2.079	1.969	-0.052	-0.044	0.110
0.121	19.785	0.010	-0.036	0.021	0.318	0.553	0.497	-0.160	1.524	2.086	1.976	-0.053	-0.044	0.108
0.121	19.778	0.008	-0.039	0.031	0.317	0.546	0.505	-0.119	1.480	2.084	1.972	-0.053	-0.043	0.104
0.121	19.800	0.006	-0.043	0.040	0.315	0.602	0.534	-0.094	1.481	2.089	1.976	-0.057	-0.041	0.103
0.121	19.772	-0.001	-0.046	0.050	0.313	0.665	0.554	-0.123	1.516	2.081	1.973	-0.057	-0.038	0.101
0.122	19.803	-0.007	-0.050	0.055	0.309	0.698	0.580	-0.160	1.544	2.082	1.973	-0.062	-0.034	0.099
0.122	19.781	-0.014	-0.057	0.064	0.304	0.718	0.581	-0.163	1.551	2.084	1.971	-0.063	-0.029	0.099
0.122	19.788	-0.016	-0.055	0.072	0.296	0.695	0.574	-0.146	1.511	2.085	1.976	-0.065	-0.024	0.098
0.122	19.772	-0.016	-0.054	0.081	0.287	0.651	0.591	-0.092	1.423	2.082	1.979	-0.071	-0.020	0.098
0.122	19.766	-0.012	-0.055	0.089	0.277	0.651	0.573	-0.044	1.371	2.077	1.974	-0.073	-0.014	0.099
0.123	19.778	-0.009	-0.053	0.098	0.265	0.667	0.602	-0.011	1.338	2.075	1.974	-0.079	-0.010	0.099
0.123	19.781	-0.009	-0.053	0.108	0.253	0.665	0.629	-0.015	1.378	2.080	1.965	-0.083	-0.004	0.100
0.123	19.766	-0.007	-0.052	0.115	0.239	0.689	0.620	-0.045	1.403	2.080	1.964	-0.086	-0.002	0.101
0.123	19.769	-0.007	-0.048	0.123	0.226	0.722	0.614	-0.087	1.472	2.080	1.968	-0.089	0.003	0.102
0.123	19.757	-0.010	-0.044	0.127	0.212	0.767	0.621	-0.112	1.475	2.078	1.964	-0.092	0.005	0.103
0.124	19.760	-0.017	-0.042	0.131	0.202	0.797	0.614	-0.094	1.443	2.074	1.981	-0.095	0.010	0.103
0.124	19.754	-0.022	-0.039	0.132	0.190	0.797	0.641	-0.052	1.390	2.077	1.972	-0.097	0.012	0.104
0.124	19.785	-0.025	-0.037	0.132	0.182	0.785	0.696	-0.025	1.338	2.083	1.966	-0.098	0.015	0.106
0.124	19.745	-0.023	-0.034	0.126	0.174	0.753	0.716	-0.036	1.354	2.083	1.966	-0.099	0.018	0.108
0.124	19.742	-0.021	-0.032	0.123	0.169	0.738	0.725	-0.044	1.386	2.085	1.970	-0.099	0.019	0.110
0.125	19.742	-0.020	-0.028	0.115	0.167	0.722	0.732	-0.056	1.441	2.078	1.975	-0.100	0.022	0.111
0.125	19.736	-0.019	-0.027	0.107	0.166	0.725	0.723	-0.069	1.475	2.078	1.964	-0.100	0.023	0.112
0.125	19.739	-0.018	-0.024	0.097	0.168	0.740	0.707	-0.036	1.438	2.075	1.968	-0.099	0.022	0.114
0.125	19.751	-0.019	-0.024	0.087	0.172	0.771	0.690	0.003	1.380	2.079	1.966	-0.096	0.025	0.117
0.125	19.736	-0.025	-0.022	0.074	0.180	0.740	0.688	0.034	1.317	2.070	1.972	-0.094	0.024	0.116
0.126	19.754	-0.023	-0.022	0.064	0.186	0.774	0.700	0.053	1.277	2.080	1.969	-0.092	0.023	0.120
0.126	19.717	-0.028	-0.024	0.052	0.197	0.714	0.688	0.054	1.305	2.081	1.968	-0.087	0.025	0.119
0.126	19.720	-0.026	-0.022	0.041	0.210	0.713	0.694	0.025	1.378	2.075	1.975	-0.083	0.023	0.120
0.126	19.720	-0.026	-0.023	0.030	0.222	0.642	0.669	-0.005	1.475	2.074	1.972	-0.078	0.022	0.118
0.126	19.724	-0.021	-0.021	0.021	0.235	0.635	0.669	-0.029	1.538	2.075	1.965	-0.074	0.021	0.120
0.127	19.724	-0.019	-0.022	0.015	0.247	0.633	0.665	-0.026	1.536	2.066	1.968	-0.067	0.019	0.118
0.127	19.708	-0.017	-0.022	0.006	0.259	0.674	0.645	0.002	1.495	2.084	1.967	-0.063	0.018	0.118
0.127	19.705	-0.017	-0.023	0.005	0.268	0.719	0.644	0.051	1.441	2.066	1.963	-0.056	0.015	0.118
0.127	19.711	-0.018	-0.023	0.003	0.274	0.731	0.629	0.074	1.369	2.075	1.966	-0.049	0.014	0.118
0.127	19.702	-0.020	-0.022	0.003	0.277	0.730	0.633	0.040	1.348	2.077	1.969	-0.045	0.011	0.117
0.128	19.705	-0.024	-0.025	0.003	0.279	0.683	0.621	-0.009	1.396	2.076	1.967	-0.041	0.010	0.118
0.128	19.720	-0.022	-0.023	0.007	0.278	0.631	0.620	-0.041	1.444	2.075	1.969	-0.036	0.009	0.117
0.128	19.693	-0.023	-0.024	0.010	0.273	0.616	0.603	-0.035	1.469	2.076	1.961	-0.032	0.006	0.118
0.128	19.708	-0.021	-0.025	0.017	0.267	0.610	0.593	0.015	1.440	2.079	1.961	-0.029	0.005	0.115
0.128	19.681	-0.020	-0.023	0.022	0.258	0.642	0.601	0.096	1.385	2.080	1.956	-0.027	0.003	0.114
0.129	19.678	-0.016	-0.024	0.029	0.246	0.674	0.607	0.184	1.306	2.069	1.962	-0.025	0.004	0.116
0.129	19.684	-0.015	-0.023	0.037	0.233	0.676	0.625	0.250	1.261	2.064	1.961	-0.025	0.003	0.110
0.129	19.669	-0.013	-0.022	0.044	0.219	0.666	0.625	0.269	1.273	2.069	1.960	-0.027	0.004	0.110
0.129	19.684	-0.014	-0.023	0.050	0.203	0.658	0.625	0.232	1.309	2.074	1.964	-0.028	0.004	0.106
0.129	19.693	-0.014	-0.023	0.057	0.185	0.644	0.643	0.198	1.391	2.066	1.962	-0.032	0.005	0.106
0.130	19.684	-0.014	-0.024	0.064	0.165	0.652	0.645	0.156	1.444	2.071	1.965	-0.035	0.007	0.103
0.130	19.690	-0.014	-0.025	0.070	0.145	0.657	0.650	0.190	1.413	2.074	1.958	-0.039	0.011	0.101
0.130	19.672	-0.013	-0.026	0.074	0.124	0.675	0.682	0.194	1.356	2.072	1.958	-0.046	0.013	0.098
0.130	19.678	-0.013	-0.026	0.077	0.104	0.663	0.682	0.223	1.282	2.066	1.958	-0.053	0.017	0.094
0.130	19.678	-0.010	-0.026	0.077	0.086	0.671	0.708	0.214	1.274	2.062	1.955	-0.061	0.016	0.091
0.131	19.672	-0.010	-0.023	0.077	0.067	0.667	0.722	0.218	1.313	2.066	1.959	-0.068	0.022	0.089
0.131	19.669	-0.007	-0.020	0.075	0.050	0.659	0.746	0.215	1.374	2.062	1.964	-0.077	0.025	0.083
0.131	19.690	-0.006	-0.017	0.072	0.035	0.667	0.747	0.268	1.437	2.062	1.961	-0.084	0.028	0.079
0.131	19.650	-0.005	-0.013	0.065	0.018	0.679	0.771	0.294	1.422	2.059	1.959	-0.092	0.030	0.074
0.131	19.659	-0.004	-0.009	0.059	0.010	0.693	0.789	0.357	1.372	2.067	1.954	-0.099	0.031	0.071
0.132	19.647	-0.002	-0.005	0.052	-0.000	0.713	0.791	0.413	1.344	2.058	1.957	-0.108	0.031	0.066
0.132	19.687	0.001	-0.003	0.045	-0.010	0.723	0.797	0.456	1.304	2.059	1.968	-0.113	0.030	0.059
0.132	19.666	0.001	-0.002	0.036	-0.017	0.737	0.780	0.458	1.301	2.059	1.959	-0.118	0.026	0.053
0.132	19.666	0.004	0.000	0.027	-0.019	0.744	0.787	0.444	1.367	2.069	1.965	-0.123	0.022	0.047
0.132	19.659	0.005	-0.002	0.017	-0.025	0.752	0.762	0.413	1.385	2.058	1.957	-0.122	0.018	0.040
0.133	19.656	0.008	-0.001	0.009	-0.019	0.759	0.739	0.368	1.418	2.062	1.959	-0.123	0.009	0.031
0.133	19.647	0.008	-0.003	-0.001	-0.019	0.768	0.737	0.378	1.391	2.062	1.965	-0.123	0.003	0.024
0.133	19.669	0.009	-0.004	-0.008	-0.010	0.765	0.738	0.386	1.370	2.062	1.959	-0.120	-0.009	0.014
0.133	19.662	0.010	-0.006	-0.017	-0.005	0.744	0.737	0.403	1.316	2.061	1.954	-0.117	-0.015	0.005
0.133	19.656	0.011	-0.008	-0.024	0.004	0.702	0.737	0.410	1.307	2.061	1.964	-0.113	-0.025	-0.007
0.134	19.650	0.011	-0.012	-0.030	0.009	0.667	0.744	0.439	1.304	2.051	1.962	-0.107	-0.035	-0.017
0.134	19.659	0.010	-0.015	-0.036	0.018	0.656	0.722	0.436	1.337	2.044	1.958	-0.101	-0.047	-0.027
0.134	19.638	0.007	-0.019	-0.041	0.023	0.654	0.693	0.458	1.362	2.047	1.960	-0.094	-0.059	-0.036
0.134	19.653	0.007	-0.024	-0.045	0.031	0.663	0.662	0.468	1.384	2.058	1.955	-0.088	-0.070	-0.045
0.134	19.650	0.005	-0.028	-0.049	0.032	0.675	0.634	0.445	1.375	2.060	1.961	-0.079	-0.078	-0.057
0.135	19.632	0.005	-0.033	-0.051	0.039	0.689	0.608	0.449	1.371	2.059	1.957	-0.072	-0.089	-0.067
0.135	19.635	0.004	-0.037	-0.055	0.041	0.691	0.616	0.458	1.380	2.054	1.954	-0.069	-0.094	-0.074
0.135	19.635	0.002	-0.040	-0.056	0.045	0.683	0.617	0.505	1.347	2.057	1.960	-0.059	-0.102	-0.081
0.135	19.617	0.003	-0.044	-0.056	0.050	0.701	0.635	0.494	1.342	2.061	1.953	-0.053	-0.108	-0.089
0.135	19.635	-0.002	-0.048	-0.056	0.048	0.701	0.656	0.487	1.363	2.052	1.963	-0.050	-0.109	-0.093
0.136	19.608	-0.006	-0.051	-0.054	0.045	0.718	0.655	0.470	1.394	2.049	1.949	-0.047	-0.113	-0.101
0.136	19.620	-0.006	-0.056	-0.052	0.042	0.764	0.635	0.506	1.425	2.054	1.952	-0.045	-0.110	-0.105
0.136	19.632	-0.011	-0.058	-0.048	0.036	0.763	0.614	0.525	1.375	2.058	1.956	-0.044	-0.107	-0.109
0.136	19.611	-0.013	-0.062	-0.044	0.029	0.779	0.625	0.567	1.357	2.056	1.956	-0.044	-0.103	-0.112
0.136	19.611	-0.015	-0.067	-0.041	0.020	0.751	0.627	0.582	1.293	2.056	1.953	-0.045	-0.099	-0.110
0.137	19.604	-0.016	-0.071	-0.038	0.012	0.744	0.633	0.597	1.257	2.054	1.953	-0.048	-0.092	-0.108
0.137	19.598	-0.018	-0.074	-0.035	0.003	0.747	0.633	0.637	1.271	2.051	1.954	-0.050	-0.085	-0.106
0.137	19.623	-0.020	-0.076	-0.035	-0.007	0.766	0.622	0.653	1.318	2.054	1.947	-0.056	-0.074	-0.103
0.137	19.580	-0.024	-0.077	-0.032	-0.014	0.781	0.601	0.657	1.323	2.049	1.953	-0.061	-0.065	-0.097
0.137	19.614	-0.026	-0.077	-0.031	-0.025	0.785	0.580	0.674	1.341	2.045	1.949	-0.068	-0.056	-0.096
0.138	19.611	-0.028	-0.078	-0.032	-0.033	0.779	0.557	0.680	1.328	2.055	1.957	-0.074	-0.047	-0.091
0.138	19.620	-0.029	-0.076	-0.033	-0.041	0.731	0.548	0.727	1.306	2.051	1.947	-0.078	-0.037	-0.084
0.138	19.589	-0.029	-0.073	-0.033	-0.049	0.701	0.550	0.763	1.290	2.056	1.942	-0.086	-0.031	-0.079
0.138	19.601	-0.031	-0.073	-0.039	-0.054	0.681	0.530	0.783	1.260	2.047	1.948	-0.090	-0.022	-0.071
0.138	19.598	-0.033	-0.069	-0.038	-0.059	0.669	0.525	0.776	1.249	2.052	1.952	-0.095	-0.015	-0.067
0.139	19.583	-0.036	-0.064	-0.039	-0.061	0.679	0.532	0.785	1.282	2.045	1.948	-0.099	-0.011	-0.060
0.139	19.586	-0.038	-0.063	-0.046	-0.062	0.707	0.531	0.776	1.293	2.046	1.948	-0.101	-0.005	-0.055
0.139	19.586	-0.041	-0.059	-0.050	-0.058	0.710	0.521	0.808	1.299	2.047	1.948	-0.102	-0.007	-0.049
0.139	19.614	-0.043	-0.060	-0.057	-0.052	0.690	0.508	0.801	1.273	2.053	1.950	-0.102	-0.007	-0.045
0.139	19.601	-0.047	-0.058	-0.063	-0.045	0.639	0.493	0.811	1.246	2.050	1.949	-0.101	-0.010	-0.041
0.140	19.608	-0.046	-0.056	-0.066	-0.035	0.631	0.489	0.810	1.211	2.051	1.953	-0.098	-0.012	-0.038
0.140	19.608	-0.049	-0.059	-0.071	-0.023	0.638	0.494	0.833	1.178	2.039	1.944	-0.094	-0.019	-0.035
0.140	19.617	-0.052	-0.061	-0.074	-0.010	0.686	0.492	0.861	1.142	2.048	1.950	-0.089	-0.025	-0.034
0.140	19.626	-0.055	-0.062	-0.075	0.006	0.722	0.506	0.864	1.119	2.039	1.951	-0.081	-0.033	-0.034
0.140	19.650	-0.058	-0.066	-0.074	0.020	0.734	0.498	0.883	1.108	2.050	1.949	-0.073	-0.042	-0.036
0.141	19.641	-0.062	-0.067	-0.071	0.035	0.712	0.499	0.866	1.155	2.049	1.946	-0.064	-0.050	-0.035
0.141	19.675	-0.065	-0.069	-0.067	0.049	0.655	0.508	0.892	1.186	2.045	1.943	-0.054	-0.060	-0.038
0.141	19.656	-0.065	-0.069	-0.060	0.063	0.639	0.512	0.900	1.201	2.046	1.946	-0.044	-0.069	-0.041
0.141	19.669	-0.065	-0.072	-0.053	0.077	0.629	0.523	0.928	1.189	2.040	1.949	-0.034	-0.078	-0.041
0.141	19.669	-0.062	-0.073	-0.043	0.090	0.670	0.536	0.906	1.143	2.051	1.950	-0.025	-0.086	-0.044
0.142	19.681	-0.060	-0.076	-0.031	0.102	0.731	0.571	0.923	1.151	2.046	1.943	-0.014	-0.093	-0.048
0.142	19.662	-0.057	-0.077	-0.020	0.112	0.790	0.587	0.921	1.120	2.046	1.940	-0.005	-0.097	-0.051
0.142	19.684	-0.056	-0.080	-0.010	0.121	0.826	0.601	0.937	1.124	2.057	1.950	0.004	-0.103	-0.053
0.142	19.653	-0.055	-0.081	0.003	0.127	0.824	0.601	0.943	1.157	2.042	1.935	0.011	-0.103	-0.054
0.142	19.678	-0.057	-0.082	0.017	0.130	0.791	0.602	0.954	1.179	2.047	1.937	0.018	-0.105	-0.057
0.143	19.647	-0.057	-0.083	0.030	0.133	0.754	0.601	0.947	1.193	2.050	1.947	0.021	-0.103	-0.058
0.143	19.678	-0.057	-0.080	0.043	0.132	0.740	0.626	0.979	1.200	2.038	1.950	0.024	-0.100	-0.056
0.143	19.687	-0.058	-0.080	0.058	0.128	0.754	0.618	0.980	1.168	2.044	1.944	0.024	-0.093	-0.055
0.143	19.659	-0.055	-0.076	0.070	0.122	0.815	0.638	0.974	1.152	2.051	1.943	0.024	-0.086	-0.053
0.143	19.666	-0.055	-0.075	0.083	0.116	0.863	0.640	0.969	1.178	2.044	1.939	0.021	-0.078	-0.050
0.144	19.672	-0.052	-0.074	0.096	0.108	0.894	0.631	0.963	1.193	2.052	1.945	0.018	-0.068	-0.048
0.144	19.693	-0.052	-0.067	0.106	0.097	0.876	0.625	0.977	1.199	2.043	1.942	0.014	-0.056	-0.044
0.144	19.675	-0.053	-0.063	0.117	0.086	0.825	0.606	0.977	1.199	2.045	1.947	0.006	-0.043	-0.041
0.144	19.672	-0.052	-0.061	0.126	0.074	0.791	0.619	0.958	1.195	2.042	1.947	0.001	-0.029	-0.036
0.144	19.666	-0.051	-0.062	0.137	0.062	0.788	0.645	0.950	1.193	2.044	1.940	-0.010	-0.015	-0.030
0.145	19.684	-0.053	-0.062	0.146	0.048	0.793	0.684	0.912	1.176	2.043	1.937	-0.017	0.000	-0.026
0.145	19.653	-0.049	-0.065	0.153	0.037	0.839	0.683	0.886	1.197	2.042	1.941	-0.029	0.012	-0.020
0.145	19.644	-0.047	-0.062	0.159	0.026	0.880	0.688	0.883	1.205	2.041	1.938	-0.039	0.027	-0.015
0.145	19.675	-0.046	-0.061	0.168	0.017	0.898	0.682	0.878	1.217	2.041	1.948	-0.047	0.038	-0.009
0.145	19.672	-0.038	-0.061	0.173	0.006	0.920	0.652	0.931	1.253	2.046	1.936	-0.058	0.047	-0.002
0.146	19.669	-0.043	-0.062	0.177	-0.001	0.907	0.644	0.957	1.256	2.039	1.943	-0.066	0.057	0.000
0.146	19.659	-0.040	-0.061	0.184	-0.005	0.914	0.659	0.973	1.268	2.034	1.935	-0.074	0.061	0.006
0.146	19.666	-0.039	-0.062	0.187	-0.006	0.909	0.663	0.995	1.292	2.034	1.940	-0.080	0.066	0.010
0.146	19.638	-0.037	-0.061	0.191	-0.007	0.954	0.675	0.993	1.278	2.040	1.937	-0.086	0.065	0.015
0.146	19.647	-0.038	-0.061	0.191	-0.005	0.959	0.716	0.987	1.245	2.044	1.937	-0.089	0.065	0.015
0.147	19.623	-0.036	-0.063	0.191	0.002	0.997	0.686	0.973	1.248	2.034	1.935	-0.092	0.062	0.017
0.147	19.644	-0.034	-0.065	0.192	0.012	0.997	0.676	0.975	1.240	2.032	1.932	-0.093	0.056	0.016
0.147	19.650	-0.032	-0.065	0.192	0.024	0.993	0.619	1.001	1.238	2.030	1.932	-0.094	0.048	0.018
0.147	19.641	-0.026	-0.066	0.190	0.039	0.970	0.585	1.020	1.222	2.028	1.929	-0.091	0.037	0.015
0.147	19.638	-0.022	-0.065	0.188	0.055	0.987	0.563	1.040	1.223	2.040	1.934	-0.088	0.026	0.013
0.148	19.611	-0.017	-0.064	0.187	0.074	0.986	0.601	1.029	1.216	2.041	1.932	-0.081	0.012	0.008
0.148	19.623	-0.014	-0.063	0.184	0.094	1.014	0.638	0.979	1.220	2.036	1.939	-0.079	-0.001	0.008
0.148	19.604	-0.011	-0.061	0.184	0.113	1.056	0.657	0.945	1.224	2.029	1.935	-0.073	-0.015	0.002
0.148	19.608	-0.010	-0.058	0.183	0.133	1.063	0.655	0.901	1.240	2.025	1.935	-0.066	-0.029	-0.003
0.148	19.620	-0.007	-0.060	0.184	0.153	1.091	0.614	0.883	1.247	2.029	1.930	-0.058	-0.041	-0.007
0.149	19.595	-0.005	-0.057	0.185	0.175	1.106	0.583	0.901	1.224	2.031	1.936	-0.051	-0.055	-0.015
0.149	19.589	-0.002	-0.055	0.190	0.193	1.114	0.542	0.918	1.186	2.030	1.931	-0.043	-0.065	-0.019
0.149	19.614	0.002	-0.053	0.193	0.213	1.090	0.538	0.940	1.157	2.032	1.932	-0.036	-0.074	-0.025
0.149	19.598	0.008	-0.051	0.199	0.229	1.089	0.568	0.931	1.141	2.032	1.927	-0.030	-0.080	-0.031
0.149	19.595	0.011	-0.049	0.203	0.247	1.102	0.603	0.908	1.135	2.028	1.931	-0.025	-0.084	-0.036
0.150	19.601	0.012	-0.046	0.210	0.260	1.134	0.617	0.900	1.102	2.031	1.927	-0.021	-0.084	-0.040
0.150	19.580	0.013	-0.044	0.214	0.274	1.191	0.601	0.898	1.117	2.038	1.929	-0.017	-0.083	-0.044
0.150	19.595	0.010	-0.041	0.220	0.284	1.224	0.569	0.911	1.129	2.034	1.929	-0.016	-0.078	-0.047
0.150	19.589	0.009	-0.040	0.223	0.293	1.252	0.528	0.926	1.160	2.036	1.929	-0.018	-0.072	-0.048
0.150	19.608	0.008	-0.039	0.228	0.295	1.260	0.511	0.956	1.192	2.028	1.926	-0.017	-0.061	-0.047
0.151	19.583	0.008	-0.040	0.231	0.297	1.259	0.506	0.959	1.164	2.027	1.931	-0.021	-0.052	-0.048
0.151	19.592	0.008	-0.041	0.234	0.294	1.224	0.536	0.960	1.137	2.028	1.927	-0.025	-0.039	-0.045
0.151	19.598	0.011	-0.044	0.235	0.288	1.215	0.579	0.944	1.114	2.029	1.926	-0.030	-0.025	-0.042
0.151	19.598	0.013	-0.043	0.235	0.281	1.233	0.592	0.908	1.125	2.026	1.933	-0.036	-0.010	-0.039
0.151	19.595	0.015	-0.046	0.232	0.267	1.248	0.583	0.856	1.145	2.035	1.928	-0.042	0.003	-0.036
0.152	19.623	0.016	-0.046	0.228	0.252	1.278	0.565	0.821	1.198	2.028	1.931	-0.048	0.017	-0.032
0.152	19.598	0.015	-0.049	0.222	0.236	1.275	0.533	0.799	1.257	2.031	1.926	-0.057	0.029	-0.024
0.152	19.592	0.013	-0.050	0.215	0.219	1.276	0.517	0.791	1.311	2.025	1.925	-0.063	0.041	-0.019
0.152	19.620	0.010	-0.053	0.207	0.199	1.228	0.519	0.786	1.311	2.021	1.926	-0.069	0.052	-0.015
0.152	19.611	0.008	-0.054	0.195	0.181	1.189	0.542	0.791	1.308	2.027	1.926	-0.075	0.060	-0.011
0.153	19.614	0.005	-0.052	0.185	0.162	1.154	0.583	0.817	1.294	2.029	1.924	-0.079	0.067	-0.006
0.153	19.653	0.005	-0.053	0.172	0.143	1.164	0.620	0.788	1.296	2.026	1.929	-0.081	0.072	-0.006
0.153	19.644	0.005	-0.052	0.160	0.126	1.198	0.643	0.759	1.317	2.015	1.926	-0.083	0.074	-0.004
0.153	19.641	0.007	-0.051	0.145	0.114	1.211	0.618	0.747	1.343	2.020	1.923	-0.082	0.075	-0.003
0.153	19.650	0.008	-0.049	0.130	0.104	1.219	0.578	0.729	1.362	2.027	1.927	-0.081	0.071	-0.002
0.154	19.641	0.009	-0.047	0.115	0.095	1.207	0.557	0.726	1.361	2.031	1.924	-0.080	0.070	-0.004
0.154	19.650	0.011	-0.042	0.101	0.092	1.184	0.553	0.704	1.390	2.025	1.924	-0.077	0.067	-0.004
0.154	19.653	0.010	-0.038	0.084	0.088	1.157	0.553	0.682	1.391	2.031	1.925	-0.072	0.065	-0.008
0.154	19.656	0.010	-0.034	0.067	0.088	1.144	0.584	0.653	1.393	2.019	1.921	-0.066	0.059	-0.011
0.154	19.659	0.011	-0.029	0.054	0.097	1.135	0.603	0.650	1.404	2.014	1.925	-0.061	0.051	-0.009
0.155	19.672	0.015	-0.026	0.039	0.106	1.139	0.611	0.662	1.432	2.027	1.923	-0.054	0.047	-0.009
0.155	19.678	0.016	-0.024	0.027	0.113	1.134	0.613	0.689	1.460	2.026	1.921	-0.048	0.042	-0.012
0.155	19.672	0.021	-0.021	0.016	0.123	1.132	0.595	0.740	1.472	2.025	1.920	-0.043	0.036	-0.015
0.155	19.666	0.022	-0.017	0.005	0.135	1.091	0.572	0.766	1.496	2.025	1.920	-0.041	0.034	-0.016
0.155	19.693	0.025	-0.012	-0.005	0.146	1.064	0.559	0.809	1.468	2.009	1.922	-0.032	0.029	-0.015
0.156	19.681	0.027	-0.010	-0.011	0.160	1.042	0.567	0.792	1.446	2.023	1.923	-0.031	0.027	-0.013
0.156	19.687	0.024	-0.007	-0.018	0.171	0.982	0.597	0.783	1.498	2.022	1.918	-0.023	0.026	-0.014
0.156	19.675	0.029	-0.007	-0.023	0.180	1.006	0.637	0.749	1.518	2.025	1.924	-0.026	0.024	-0.011
0.156	19.675	0.026	-0.007	-0.025	0.186	0.996	0.667	0.716	1.517	2.021	1.923	-0.025	0.027	-0.008
0.156	19.675	0.031	-0.009	-0.026	0.192	1.022	0.677	0.715	1.518	2.027	1.920	-0.027	0.027	-0.006
0.157	19.672	0.033	-0.013	-0.026	0.193	1.001	0.670	0.681	1.500	2.025	1.926	-0.030	0.028	-0.003
0.157	19.696	0.038	-0.016	-0.022	0.193	0.989	0.664	0.638	1.445	2.029	1.923	-0.033	0.030	0.001
0.157	19.699	0.042	-0.021	-0.022	0.189	0.960	0.670	0.593	1.444	2.029	1.927	-0.037	0.030	0.005
0.157	19.690	0.046	-0.027	-0.018	0.182	0.949	0.700	0.581	1.431	2.023	1.927	-0.042	0.030	0.009
0.157	19.690	0.050	-0.031	-0.014	0.173	0.954	0.737	0.581	1.451	2.034	1.926	-0.047	0.030	0.013
0.158	19.687	0.054	-0.036	-0.007	0.163	0.971	0.775	0.569	1.452	2.032	1.923	-0.052	0.030	0.017
0.158	19.699	0.056	-0.039	-0.002	0.148	1.005	0.797	0.579	1.476	2.025	1.920	-0.058	0.029	0.020
0.158	19.705	0.058	-0.043	0.005	0.136	1.028	0.784	0.572	1.511	2.025	1.923	-0.063	0.028	0.023
0.158	19.711	0.060	-0.045	0.009	0.122	1.040	0.768	0.569	1.520	2.034	1.928	-0.068	0.026	0.024
0.158	19.705	0.066	-0.047	0.015	0.106	1.042	0.749	0.596	1.528	2.025	1.917	-0.073	0.022	0.026
0.159	19.708	0.068	-0.049	0.017	0.090	1.048	0.724	0.631	1.505	2.028	1.925	-0.077	0.019	0.028
0.159	19.693	0.071	-0.047	0.023	0.075	1.035	0.744	0.676	1.499	2.023	1.921	-0.081	0.016	0.029
0.159	19.702	0.075	-0.048	0.024	0.061	1.047	0.763	0.676	1.498	2.024	1.919	-0.085	0.012	0.030
0.159	19.705	0.077	-0.047	0.028	0.047	1.075	0.780	0.643	1.500	2.017	1.922	-0.088	0.008	0.029
0.159	19.730	0.078	-0.045	0.027	0.034	1.126	0.783	0.602	1.527	2.026	1.927	-0.091	0.003	0.031
0.160	19.696	0.079	-0.043	0.024	0.023	1.150	0.772	0.520	1.550	2.027	1.920	-0.092	0.001	0.028
0.160	19.705	0.080	-0.039	0.025	0.013	1.154	0.741	0.480	1.583	2.020	1.923	-0.093	-0.002	0.026
0.160	19.702	0.081	-0.034	0.021	0.006	1.137	0.702	0.417	1.598	2.018	1.917	-0.094	-0.005	0.024
0.160	19.705	0.083	-0.030	0.015	0.002	1.115	0.674	0.383	1.573	2.024	1.926	-0.096	-0.006	0.021
0.160	19.717	0.087	-0.026	0.010	-0.000	1.075	0.676	0.390	1.555	2.030	1.921	-0.095	-0.010	0.018
0.161	19.708	0.091	-0.021	-0.001	-0.001	1.066	0.666	0.419	1.547	2.027	1.919	-0.098	-0.009	0.013
0.161	19.705	0.092	-0.016	-0.013	0.001	1.105	0.667	0.407	1.531	2.018	1.921	-0.098	-0.011	0.008
0.161	19.717	0.094	-0.013	-0.024	0.005	1.126	0.659	0.393	1.551	2.028	1.932	-0.100	-0.009	0.003
0.161	19.714	0.095	-0.012	-0.039	0.013	1.141	0.628	0.324	1.581	2.032	1.926	-0.103	-0.009	-0.002
0.161	19.720	0.095	-0.010	-0.052	0.022	1.168	0.597	0.278	1.621	2.030	1.920	-0.104	-0.007	-0.006
0.162	19.714	0.094	-0.011	-0.064	0.035	1.178	0.562	0.295	1.680	2.029	1.923	-0.107	-0.004	-0.010
0.162	19.705	0.095	-0.011	-0.077	0.047	1.197	0.540	0.323	1.690	2.028	1.922	-0.109	-0.003	-0.014
0.162	19.717	0.097	-0.013	-0.088	0.062	1.159	0.528	0.340	1.668	2.029	1.919	-0.112	-0.001	-0.020
0.162	19.693	0.098	-0.015	-0.098	0.079	1.111	0.536	0.349	1.648	2.028	1.921	-0.114	0.001	-0.026
0.162	19.693	0.098	-0.018	-0.107	0.094	1.084	0.540	0.324	1.646	2.026	1.925	-0.118	0.003	-0.030
0.163	19.672	0.100	-0.021	-0.115	0.110	1.071	0.566	0.266	1.632	2.033	1.920	-0.120	0.003	-0.033
0.163	19.693	0.098	-0.025	-0.121	0.124	1.083	0.562	0.218	1.709	2.025	1.924	-0.123	0.004	-0.036
0.163	19.681	0.099	-0.032	-0.126	0.138	1.055	0.535	0.192	1.749	2.025	1.920	-0.125	0.001	-0.037
0.163	19.702	0.095	-0.031	-0.131	0.149	1.011	0.514	0.198	1.759	2.029	1.919	-0.127	0.001	-0.039
0.163	19.675	0.094	-0.034	-0.133	0.159	0.973	0.505	0.218	1.717	2.033	1.919	-0.128	-0.004	-0.039
0.164	19.678	0.093	-0.036	-0.135	0.169	0.979	0.506	0.276	1.671	2.027	1.911	-0.127	-0.007	-0.039
0.164	19.684	0.094	-0.040	-0.137	0.175	1.016	0.520	0.292	1.628	2.033	1.915	-0.129	-0.014	-0.038
0.164	19.687	0.091	-0.043	-0.137	0.180	1.070	0.526	0.310	1.597	2.022	1.923	-0.128	-0.019	-0.037
0.164	19.693	0.093	-0.048	-0.135	0.183	1.111	0.494	0.277	1.595	2.030	1.923	-0.128	-0.024	-0.035
0.164	19.702	0.093	-0.048	-0.133	0.185	1.064	0.520	0.229	1.642	2.030	1.919	-0.126	-0.030	-0.035
0.165	19.678	0.094	-0.049	-0.129	0.183	0.979	0.517	0.206	1.684	2.034	1.918	-0.125	-0.035	-0.035
0.165	19.684	0.094	-0.052	-0.126	0.180	0.924	0.517	0.198	1.706	2.027	1.917	-0.122	-0.041	-0.032
0.165	19.678	0.088	-0.054	-0.124	0.175	0.875	0.543	0.206	1.730	2.028	1.918	-0.119	-0.046	-0.032
0.165	19.672	0.086	-0.057	-0.118	0.169	0.854	0.544	0.238	1.711	2.024	1.916	-0.119	-0.049	-0.029
0.165	19.678	0.076	-0.056	-0.116	0.162	0.832	0.584	0.217	1.686	2.027	1.920	-0.113	-0.052	-0.029
0.166	19.690	0.074	-0.059	-0.109	0.153	0.845	0.578	0.186	1.652	2.026	1.917	-0.113	-0.055	-0.027
0.166	19.675	0.065	-0.058	-0.103	0.145	0.869	0.573	0.147	1.665	2.029	1.915	-0.112	-0.053	-0.026
0.166	19.687	0.060	-0.059	-0.097	0.136	0.874	0.534	0.109	1.677	2.034	1.913	-0.110	-0.051	-0.023
0.166	19.656	0.058	-0.056	-0.090	0.128	0.887	0.531	0.114	1.686	2.025	1.913	-0.108	-0.048	-0.022
0.166	19.684	0.058	-0.059	-0.082	0.119	0.838	0.502	0.132	1.700	2.024	1.920	-0.108	-0.046	-0.019
0.167	19.669	0.055	-0.059	-0.074	0.111	0.812	0.526	0.168	1.693	2.021	1.914	-0.108	-0.039	-0.016
0.167	19.687	0.057	-0.057	-0.065	0.102	0.766	0.520	0.233	1.668	2.029	1.918	-0.109	-0.032	-0.012
0.167	19.669	0.050	-0.058	-0.056	0.095	0.766	0.550	0.247	1.656	2.021	1.917	-0.109	-0.026	-0.005
0.167	19.672	0.046	-0.056	-0.046	0.086	0.781	0.547	0.243	1.646	2.023	1.908	-0.112	-0.016	-0.002
0.167	19.669	0.042	-0.055	-0.037	0.079	0.817	0.550	0.206	1.658	2.021	1.918	-0.113	-0.006	0.003
0.168	19.678	0.032	-0.050	-0.030	0.074	0.858	0.553	0.146	1.688	2.020	1.918	-0.117	0.004	0.010
0.168	19.693	0.031	-0.046	-0.023	0.071	0.873	0.550	0.105	1.705	2.028	1.913	-0.117	0.014	0.015
0.168	19.690	0.029	-0.040	-0.015	0.065	0.865	0.558	0.097	1.708	2.033	1.907	-0.119	0.022	0.023
0.168	19.702	0.026	-0.037	-0.012	0.065	0.819	0.549	0.126	1.713	2.024	1.917	-0.123	0.032	0.029
0.168	19.678	0.028	-0.029	-0.005	0.065	0.771	0.556	0.187	1.684	2.019	1.916	-0.124	0.039	0.035
0.169	19.705	0.027	-0.025	-0.003	0.067	0.771	0.556	0.207	1.621	2.029	1.916	-0.125	0.045	0.040
0.169	19.687	0.026	-0.020	0.001	0.074	0.774	0.555	0.186	1.615	2.014	1.913	-0.126	0.052	0.046
0.169	19.708	0.025	-0.015	0.003	0.080	0.795	0.536	0.138	1.644	2.022	1.917	-0.125	0.054	0.050
0.169	19.739	0.023	-0.012	0.006	0.089	0.828	0.518	0.049	1.673	2.025	1.915	-0.123	0.056	0.055
0.169	19.705	0.019	-0.009	0.006	0.098	0.847	0.523	0.004	1.731	2.031	1.911	-0.120	0.056	0.057
0.170	19.730	0.018	-0.007	0.006	0.109	0.853	0.531	-0.001	1.751	2.017	1.909	-0.116	0.055	0.058
0.170	19.714	0.020	-0.005	0.005	0.120	0.852	0.544	0.059	1.789	2.013	1.910	-0.111	0.053	0.057
0.170	19.727	0.022	-0.003	-0.000	0.130	0.827	0.543	0.088	1.780	2.030	1.914	-0.104	0.048	0.056
0.170	19.733	0.025	-0.001	-0.003	0.142	0.787	0.534	0.099	1.749	2.021	1.907	-0.096	0.044	0.055
0.170	19.736	0.030	-0.000	-0.011	0.154	0.786	0.523	0.068	1.728	2.019	1.902	-0.087	0.037	0.050
0.171	19.751	0.031	0.000	-0.016	0.165	0.789	0.525	0.015	1.740	2.012	1.911	-0.082	0.031	0.050
0.171	19.751	0.031	0.000	-0.023	0.178	0.815	0.535	-0.047	1.785	2.018	1.911	-0.071	0.025	0.045
0.171	19.763	0.030	0.000	-0.028	0.188	0.872	0.540	-0.075	1.795	2.016	1.917	-0.062	0.015	0.043
0.171	19.751	0.028	-0.001	-0.035	0.196	0.876	0.554	-0.068	1.806	2.023	1.914	-0.053	0.008	0.040
0.171	19.748	0.027	-0.000	-0.043	0.206	0.861	0.559	-0.029	1.796	2.013	1.914	-0.045	0.002	0.032
0.172	19.775	0.028	-0.003	-0.047	0.209	0.831	0.573	0.011	1.761	2.017	1.910	-0.037	-0.003	0.029
0.172	19.775	0.034	-0.006	-0.053	0.213	0.801	0.566	0.032	1.729	2.017	1.904	-0.030	-0.009	0.024
0.172	19.775	0.040	-0.007	-0.057	0.210	0.789	0.581	-0.009	1.708	2.018	1.906	-0.022	-0.014	0.019
0.172	19.800	0.046	-0.010	-0.061	0.205	0.813	0.581	-0.048	1.748	2.017	1.910	-0.020	-0.016	0.019
0.172	19.769	0.050	-0.009	-0.064	0.194	0.848	0.574	-0.095	1.743	2.015	1.906	-0.017	-0.017	0.016
0.173	19.781	0.055	-0.009	-0.068	0.186	0.881	0.561	-0.119	1.730	2.007	1.901	-0.016	-0.019	0.015
0.173	19.763	0.053	-0.007	-0.068	0.169	0.894	0.540	-0.098	1.699	2.003	1.909	-0.017	-0.018	0.013
0.173	19.772	0.052	-0.008	-0.067	0.155	0.881	0.526	-0.036	1.677	1.999	1.914	-0.019	-0.016	0.014
0.173	19.791	0.051	-0.007	-0.066	0.136	0.845	0.488	0.004	1.638	2.000	1.908	-0.026	-0.014	0.013
0.173	19.769	0.051	-0.008	-0.066	0.118	0.788	0.460	0.016	1.642	2.010	1.913	-0.030	-0.010	0.013
0.174	19.775	0.054	-0.006	-0.064	0.099	0.744	0.447	-0.005	1.652	2.014	1.915	-0.036	-0.007	0.015
0.174	19.803	0.058	-0.007	-0.063	0.081	0.726	0.450	-0.088	1.690	2.002	1.906	-0.041	-0.004	0.015
0.174	19.772	0.065	-0.006	-0.061	0.062	0.762	0.453	-0.123	1.696	2.006	1.906	-0.052	0.001	0.015
0.174	19.794	0.066	-0.007	-0.059	0.047	0.769	0.468	-0.126	1.719	2.010	1.905	-0.062	0.005	0.016
0.174	19.775	0.066	-0.008	-0.060	0.032	0.773	0.452	-0.093	1.713	2.017	1.906	-0.072	0.011	0.017
0.175	19.772	0.062	-0.006	-0.060	0.021	0.741	0.465	-0.053	1.717	2.017	1.906	-0.081	0.010	0.013
0.175	19.778	0.059	-0.006	-0.062	0.012	0.738	0.466	-0.020	1.689	2.010	1.913	-0.091	0.011	0.016
0.175	19.791	0.055	-0.005	-0.065	0.006	0.719	0.448	-0.019	1.683	2.009	1.916	-0.099	0.011	0.017
0.175	19.797	0.056	-0.002	-0.069	0.004	0.717	0.476	-0.013	1.664	2.011	1.907	-0.106	0.010	0.011
0.175	19.766	0.057	-0.002	-0.073	0.002	0.740	0.477	-0.037	1.650	2.004	1.906	-0.117	0.007	0.007
0.176	19.797	0.060	0.003	-0.078	0.006	0.728	0.496	-0.023	1.627	2.007	1.904	-0.121	0.004	0.004
0.176	19.797	0.067	0.005	-0.086	0.010	0.773	0.509	-0.016	1.620	2.008	1.909	-0.127	-0.004	0.000
0.176	19.791	0.069	0.007	-0.093	0.013	0.790	0.522	0.031	1.589	2.003	1.906	-0.128	-0.009	-0.004
0.176	19.806	0.071	0.009	-0.098	0.026	0.792	0.521	0.045	1.584	2.008	1.903	-0.130	-0.020	-0.007
0.176	19.794	0.069	0.010	-0.106	0.034	0.768	0.512	0.081	1.598	2.004	1.909	-0.129	-0.030	-0.012
0.177	19.809	0.067	0.011	-0.111	0.043	0.750	0.516	0.096	1.603	2.007	1.904	-0.131	-0.038	-0.015
0.177	19.827	0.060	0.013	-0.116	0.055	0.718	0.505	0.123	1.670	2.014	1.909	-0.128	-0.049	-0.021
0.177	19.815	0.057	0.015	-0.121	0.065	0.722	0.498	0.131	1.698	2.004	1.911	-0.127	-0.058	-0.026
0.177	19.818	0.056	0.016	-0.122	0.074	0.767	0.504	0.157	1.656	2.012	1.907	-0.122	-0.069	-0.030
0.177	19.830	0.057	0.017	-0.123	0.085	0.805	0.497	0.169	1.637	2.012	1.908	-0.117	-0.078	-0.033
0.178	19.809	0.061	0.018	-0.123	0.095	0.838	0.497	0.166	1.597	2.005	1.909	-0.113	-0.090	-0.037
0.178	19.815	0.065	0.018	-0.120	0.105	0.847	0.501	0.202	1.589	2.012	1.905	-0.108	-0.096	-0.041
0.178	19.830	0.069	0.018	-0.116	0.112	0.832	0.497	0.215	1.595	2.009	1.901	-0.102	-0.104	-0.046
0.178	19.833	0.070	0.018	-0.114	0.118	0.819	0.477	0.229	1.596	2.010	1.904	-0.097	-0.108	-0.049
0.178	19.846	0.068	0.016	-0.107	0.124	0.817	0.476	0.207	1.581	2.007	1.907	-0.091	-0.111	-0.052
0.179	19.839	0.065	0.016	-0.097	0.127	0.839	0.474	0.180	1.566	2.005	1.902	-0.086	-0.113	-0.057
0.179	19.864	0.065	0.014	-0.089	0.125	0.890	0.483	0.158	1.528	2.007	1.906	-0.082	-0.113	-0.058
0.179	19.839	0.061	0.012	-0.080	0.121	0.899	0.483	0.162	1.519	1.995	1.908	-0.078	-0.109	-0.063
0.179	19.855	0.061	0.010	-0.072	0.114	0.904	0.489	0.177	1.523	2.004	1.902	-0.075	-0.105	-0.066
0.179	19.833	0.062	0.006	-0.064	0.105	0.857	0.494	0.181	1.540	2.007	1.907	-0.072	-0.098	-0.068
0.180	19.852	0.065	0.007	-0.053	0.094	0.811	0.507	0.171	1.575	2.005	1.901	-0.070	-0.090	-0.072
0.180	19.833	0.067	0.006	-0.041	0.083	0.777	0.532	0.167	1.597	2.005	1.901	-0.069	-0.082	-0.075
0.180	19.858	0.065	0.004	-0.034	0.068	0.784	0.524	0.157	1.587	2.005	1.907	-0.068	-0.072	-0.074
0.180	19.821	0.064	0.003	-0.027	0.054	0.808	0.525	0.181	1.525	2.005	1.911	-0.069	-0.064	-0.075
0.180	19.849	0.058	0.002	-0.020	0.039	0.828	0.505	0.223	1.490	2.011	1.908	-0.069	-0.055	-0.075
0.181	19.833	0.055	0.001	-0.016	0.023	0.845	0.474	0.209	1.445	2.006	1.904	-0.068	-0.047	-0.076
0.181	19.855	0.050	-0.001	-0.010	0.009	0.832	0.452	0.201	1.433	2.009	1.903	-0.070	-0.039	-0.075
0.181	19.849	0.050	-0.001	-0.008	-0.006	0.825	0.435	0.220	1.444	2.002	1.903	-0.072	-0.031	-0.074
0.181	19.846	0.051	-0.002	-0.005	-0.020	0.787	0.428	0.223	1.484	2.001	1.908	-0.074	-0.025	-0.073
0.181	19.827	0.053	-0.002	-0.004	-0.034	0.773	0.453	0.225	1.542	2.015	1.911	-0.077	-0.019	-0.071
0.182	19.852	0.057	0.001	-0.006	-0.047	0.771	0.477	0.180	1.562	2.004	1.906	-0.079	-0.016	-0.068
0.182	19.852	0.059	0.003	-0.007	-0.056	0.779	0.495	0.159	1.559	2.006	1.903	-0.082	-0.016	-0.064
0.182	19.864	0.058	0.005	-0.007	-0.065	0.791	0.488	0.146	1.545	1.998	1.899	-0.084	-0.016	-0.061
0.182	19.867	0.056	0.008	-0.009	-0.072	0.803	0.477	0.186	1.491	2.012	1.904	-0.084	-0.019	-0.057
0.182	19.846	0.053	0.010	-0.010	-0.075	0.784	0.445	0.199	1.469	2.010	1.902	-0.086	-0.021	-0.055
0.183	19.858	0.050	0.012	-0.013	-0.078	0.740	0.447	0.243	1.448	2.000	1.910	-0.087	-0.026	-0.052
0.183	19.861	0.047	0.013	-0.016	-0.079	0.693	0.448	0.217	1.456	2.007	1.909	-0.089	-0.031	-0.050
0.183	19.858	0.044	0.016	-0.020	-0.076	0.651	0.486	0.206	1.479	2.002	1.907	-0.090	-0.036	-0.049
0.183	19.891	0.046	0.016	-0.024	-0.073	0.613	0.510	0.156	1.499	2.012	1.906	-0.090	-0.043	-0.046
0.183	19.870	0.045	0.016	-0.029	-0.069	0.628	0.519	0.155	1.499	2.010	1.904	-0.092	-0.048	-0.045
0.184	19.897	0.045	0.016	-0.032	-0.062	0.644	0.510	0.177	1.490	2.004	1.902	-0.093	-0.053	-0.044
0.184	19.858	0.043	0.019	-0.035	-0.054	0.653	0.489	0.197	1.447	1.999	1.900	-0.095	-0.059	-0.044
0.184	19.894	0.043	0.019	-0.038	-0.044	0.650	0.466	0.262	1.433	2.006	1.906	-0.096	-0.063	-0.046
0.184	19.882	0.042	0.020	-0.041	-0.034	0.628	0.439	0.287	1.430	2.008	1.900	-0.094	-0.070	-0.046
0.184	19.910	0.042	0.022	-0.044	-0.023	0.616	0.447	0.306	1.453	2.005	1.905	-0.095	-0.073	-0.047
0.185	19.897	0.037	0.018	-0.047	-0.010	0.604	0.476	0.288	1.512	2.005	1.908	-0.096	-0.074	-0.048
0.185	19.891	0.039	0.020	-0.049	0.002	0.602	0.520	0.287	1.543	2.002	1.906	-0.094	-0.073	-0.053
0.185	19.897	0.039	0.021	-0.051	0.015	0.615	0.535	0.267	1.519	2.003	1.909	-0.095	-0.072	-0.054
0.185	19.901	0.041	0.021	-0.052	0.025	0.616	0.513	0.281	1.490	2.001	1.909	-0.092	-0.070	-0.058
0.185	19.910	0.045	0.020	-0.051	0.036	0.631	0.488	0.323	1.448	1.999	1.910	-0.090	-0.068	-0.061
0.186	19.901	0.045	0.021	-0.052	0.044	0.613	0.449	0.361	1.434	1.998	1.905	-0.093	-0.062	-0.063
0.186	19.916	0.046	0.020	-0.051	0.050	0.591	0.448	0.369	1.429	2.008	1.905	-0.087	-0.058	-0.067
0.186	19.897	0.049	0.019	-0.044	0.055	0.574	0.460	0.380	1.462	1.990	1.910	-0.089	-0.052	-0.070
0.186	19.919	0.047	0.017	-0.040	0.057	0.567	0.483	0.357	1.476	2.001	1.909	-0.089	-0.046	-0.075
0.186	19.913	0.047	0.016	-0.034	0.058	0.553	0.504	0.348	1.482	2.009	1.895	-0.088	-0.040	-0.078
0.187	19.955	0.050	0.013	-0.028	0.055	0.580	0.492	0.330	1.453	2.003	1.905	-0.087	-0.032	-0.081
0.187	19.913	0.050	0.012	-0.022	0.051	0.609	0.482	0.313	1.398	2.002	1.902	-0.087	-0.028	-0.085
0.187	19.940	0.049	0.011	-0.017	0.046	0.587	0.465	0.314	1.366	2.000	1.898	-0.085	-0.022	-0.088
0.187	19.940	0.052	0.010	-0.012	0.037	0.530	0.404	0.331	1.306	1.996	1.901	-0.084	-0.016	-0.092
0.187	19.937	0.053	0.009	-0.008	0.030	0.451	0.393	0.336	1.273	2.007	1.904	-0.084	-0.012	-0.092
0.188	19.925	0.055	0.009	-0.005	0.022	0.388	0.379	0.313	1.260	2.005	1.907	-0.084	-0.007	-0.098
0.188	19.928	0.059	0.009	-0.004	0.014	0.383	0.416	0.281	1.265	2.000	1.903	-0.085	-0.003	-0.099
0.188	19.928	0.058	0.008	-0.003	0.005	0.408	0.443	0.242	1.278	1.989	1.906	-0.086	-0.000	-0.102
0.188	19.955	0.059	0.009	-0.006	-0.002	0.435	0.465	0.222	1.293	2.006	1.899	-0.088	0.004	-0.102
0.188	19.940	0.062	0.007	-0.007	-0.009	0.499	0.453	0.228	1.284	2.000	1.902	-0.090	0.006	-0.103
0.189	19.965	0.062	0.004	-0.009	-0.013	0.508	0.435	0.246	1.278	1.994	1.901	-0.093	0.008	-0.101
0.189	19.940	0.063	0.001	-0.011	-0.020	0.495	0.407	0.329	1.265	2.001	1.909	-0.098	0.008	-0.101
0.189	19.980	0.065	-0.002	-0.015	-0.025	0.497	0.396	0.390	1.249	2.001	1.904	-0.102	0.009	-0.098
0.189	19.931	0.065	-0.002	-0.020	-0.028	0.469	0.416	0.426	1.236	1.988	1.903	-0.107	0.010	-0.098
0.189	19.946	0.065	-0.004	-0.024	-0.030	0.462	0.436	0.439	1.276	1.989	1.902	-0.112	0.007	-0.093
0.190	19.940	0.066	-0.004	-0.030	-0.031	0.493	0.463	0.388	1.306	1.986	1.904	-0.117	0.004	-0.090
0.190	19.958	0.067	-0.001	-0.035	-0.033	0.524	0.468	0.341	1.336	1.995	1.909	-0.123	0.002	-0.084
0.190	19.955	0.068	0.002	-0.043	-0.033	0.592	0.472	0.310	1.292	1.990	1.911	-0.127	-0.002	-0.079
0.190	19.962	0.069	0.004	-0.047	-0.032	0.615	0.462	0.332	1.241	1.994	1.914	-0.132	-0.006	-0.071
0.190	19.943	0.072	0.007	-0.053	-0.032	0.618	0.464	0.401	1.174	1.993	1.901	-0.136	-0.011	-0.065
0.191	19.974	0.074	0.010	-0.056	-0.031	0.598	0.448	0.458	1.136	1.991	1.913	-0.138	-0.016	-0.057
0.191	19.949	0.077	0.013	-0.059	-0.027	0.592	0.440	0.469	1.104	1.997	1.913	-0.143	-0.023	-0.051
0.191	19.998	0.076	0.014	-0.061	-0.026	0.568	0.434	0.439	1.136	1.986	1.907	-0.147	-0.029	-0.044
0.191	19.980	0.077	0.015	-0.061	-0.021	0.587	0.449	0.395	1.179	1.989	1.908	-0.145	-0.035	-0.038
0.191	19.998	0.078	0.016	-0.061	-0.014	0.597	0.446	0.371	1.219	1.988	1.906	-0.143	-0.042	-0.033
0.192	19.974	0.080	0.014	-0.059	-0.008	0.634	0.433	0.399	1.245	1.978	1.907	-0.142	-0.050	-0.029
0.192	19.992	0.079	0.012	-0.056	0.001	0.627	0.409	0.481	1.234	1.988	1.906	-0.139	-0.060	-0.026
0.192	19.998	0.080	0.010	-0.050	0.012	0.626	0.393	0.546	1.189	1.996	1.911	-0.134	-0.065	-0.023
0.192	20.020	0.083	0.007	-0.045	0.024	0.597	0.389	0.567	1.211	1.986	1.903	-0.126	-0.072	-0.024
0.192	20.020	0.084	0.004	-0.039	0.036	0.551	0.404	0.547	1.202	1.983	1.906	-0.120	-0.079	-0.024
0.193	20.029	0.083	-0.001	-0.032	0.051	0.540	0.391	0.480	1.219	1.982	1.905	-0.112	-0.085	-0.025
0.193	20.038	0.083	-0.008	-0.025	0.065	0.547	0.398	0.416	1.233	1.982	1.899	-0.103	-0.091	-0.027
0.193	20.035	0.083	-0.013	-0.017	0.079	0.546	0.396	0.376	1.244	1.988	1.911	-0.094	-0.097	-0.029
0.193	20.050	0.081	-0.018	-0.009	0.093	0.554	0.388	0.410	1.235	1.983	1.905	-0.083	-0.100	-0.032
0.193	20.032	0.080	-0.024	0.000	0.106	0.566	0.377	0.458	1.196	1.985	1.902	-0.075	-0.105	-0.037
0.194	20.038	0.079	-0.030	0.009	0.117	0.560	0.374	0.522	1.153	1.980	1.906	-0.066	-0.107	-0.041
0.194	20.047	0.079	-0.037	0.017	0.128	0.553	0.363	0.554	1.150	1.980	1.906	-0.057	-0.110	-0.044
0.194	20.047	0.078	-0.041	0.024	0.134	0.547	0.378	0.550	1.156	1.978	1.899	-0.048	-0.110	-0.048
0.194	20.035	0.075	-0.045	0.033	0.137	0.551	0.400	0.500	1.191	1.977	1.899	-0.039	-0.110	-0.050
0.194	20.032	0.072	-0.047	0.040	0.141	0.569	0.426	0.447	1.217	1.980	1.905	-0.036	-0.108	-0.053
0.195	20.026	0.070	-0.050	0.046	0.142	0.592	0.417	0.427	1.153	1.980	1.902	-0.032	-0.106	-0.053
0.195	20.023	0.064	-0.052	0.052	0.138	0.609	0.408	0.468	1.078	1.985	1.897	-0.028	-0.100	-0.057
0.195	20.026	0.061	-0.051	0.056	0.135	0.634	0.438	0.531	1.013	1.981	1.901	-0.026	-0.099	-0.060
0.195	20.032	0.056	-0.052	0.061	0.129	0.644	0.424	0.579	0.990	1.979	1.902	-0.027	-0.095	-0.055
0.195	20.053	0.054	-0.052	0.064	0.115	0.630	0.441	0.570	0.978	1.977	1.901	-0.027	-0.088	-0.056
0.196	20.023	0.053	-0.053	0.067	0.106	0.627	0.471	0.523	0.998	1.982	1.905	-0.031	-0.083	-0.051
0.196	20.044	0.049	-0.053	0.070	0.094	0.615	0.478	0.440	1.025	1.975	1.906	-0.033	-0.073	-0.055
0.196	20.029	0.048	-0.053	0.074	0.078	0.631	0.495	0.398	1.015	1.983	1.904	-0.039	-0.067	-0.051
0.196	20.035	0.044	-0.052	0.076	0.063	0.635	0.518	0.415	1.051	1.983	1.904	-0.045	-0.058	-0.053
0.196	20.032	0.039	-0.050	0.073	0.046	0.623	0.507	0.477	1.033	1.981	1.904	-0.050	-0.050	-0.052
0.197	20.016	0.035	-0.048	0.074	0.029	0.607	0.516	0.543	0.999	1.973	1.905	-0.055	-0.042	-0.052
0.197	20.041	0.031	-0.045	0.072	0.018	0.583	0.485	0.573	0.996	1.978	1.903	-0.061	-0.035	-0.052
0.197	20.016	0.027	-0.043	0.072	0.006	0.580	0.477	0.566	1.043	1.981	1.908	-0.067	-0.027	-0.052
0.197	20.038	0.023	-0.038	0.070	-0.004	0.566	0.451	0.513	1.065	1.983	1.906	-0.074	-0.019	-0.051
0.197	20.010	0.020	-0.034	0.067	-0.012	0.581	0.435	0.488	1.089	1.977	1.902	-0.080	-0.011	-0.052
0.198	20.026	0.015	-0.031	0.063	-0.017	0.578	0.409	0.497	1.096	1.981	1.906	-0.085	-0.004	-0.051
0.198	20.010	0.012	-0.027	0.060	-0.019	0.596	0.423	0.554	1.072	1.976	1.902	-0.090	0.001	-0.049
0.198	19.992	0.009	-0.024	0.055	-0.018	0.598	0.412	0.593	1.055	1.981	1.902	-0.095	0.007	-0.048
0.198	20.026	0.004	-0.021	0.053	-0.015	0.590	0.401	0.629	1.041	1.981	1.903	-0.097	0.012	-0.049
0.198	20.038	0.001	-0.018	0.050	-0.011	0.583	0.400	0.587	1.052	1.972	1.898	-0.099	0.015	-0.048
0.199	20.026	-0.003	-0.018	0.048	-0.005	0.569	0.393	0.558	1.041	1.971	1.904	-0.102	0.017	-0.047
0.199	20.023	-0.006	-0.017	0.044	0.003	0.572	0.372	0.492	1.053	1.975	1.903	-0.103	0.018	-0.046
0.199	20.010	-0.009	-0.018	0.041	0.011	0.596	0.319	0.495	1.021	1.981	1.905	-0.101	0.016	-0.046
0.199	20.020	-0.012	-0.018	0.036	0.021	0.605	0.293	0.498	0.960	1.981	1.896	-0.102	0.015	-0.044
0.199	20.013	-0.016	-0.019	0.034	0.032	0.607	0.282	0.565	0.900	1.979	1.899	-0.099	0.012	-0.044
0.200	20.035	-0.021	-0.020	0.029	0.043	0.603	0.276	0.640	0.907	1.980	1.902	-0.099	0.010	-0.042
0.200	20.035	-0.025	-0.022	0.026	0.052	0.584	0.280	0.698	0.881	1.974	1.899	-0.095	0.005	-0.042
0.200	20.013	-0.027	-0.019	0.024	0.061	0.581	0.302	0.706	0.946	1.968	1.903	-0.094	-0.000	-0.041
0.200	20.020	-0.029	-0.021	0.021	0.068	0.577	0.312	0.694	0.965	1.974	1.902	-0.091	-0.007	-0.039
0.200	20.016	-0.027	-0.022	0.019	0.074	0.598	0.307	0.642	0.985	1.976	1.903	-0.089	-0.014	-0.040
0.201	20.016	-0.026	-0.024	0.014	0.076	0.620	0.302	0.603	0.975	1.974	1.898	-0.086	-0.022	-0.040
0.201	20.026	-0.023	-0.026	0.007	0.076	0.638	0.287	0.613	0.948	1.967	1.899	-0.085	-0.028	-0.041
0.201	19.998	-0.021	-0.027	0.005	0.073	0.650	0.287	0.650	0.904	1.972	1.899	-0.081	-0.034	-0.040
0.201	20.020	-0.019	-0.029	0.003	0.070	0.645	0.298	0.691	0.836	1.968	1.906	-0.076	-0.043	-0.042
0.201	20.013	-0.018	-0.029	-0.002	0.064	0.651	0.315	0.688	0.808	1.967	1.903	-0.074	-0.044	-0.041
0.202	20.023	-0.019	-0.028	-0.005	0.055	0.627	0.329	0.671	0.813	1.975	1.898	-0.072	-0.052	-0.043
0.202	20.020	-0.018	-0.029	-0.010	0.047	0.622	0.339	0.616	0.825	1.981	1.900	-0.069	-0.053	-0.042
0.202	20.035	-0.016	-0.027	-0.013	0.039	0.627	0.327	0.520	0.854	1.968	1.907	-0.069	-0.056	-0.041
0.202	20.026	-0.015	-0.026	-0.015	0.030	0.657	0.319	0.462	0.853	1.975	1.900	-0.068	-0.058	-0.040
0.202	20.038	-0.013	-0.022	-0.015	0.020	0.690	0.301	0.514	0.826	1.964	1.907	-0.068	-0.057	-0.040
0.203	20.044	-0.009	-0.020	-0.016	0.013	0.705	0.271	0.583	0.789	1.971	1.899	-0.068	-0.056	-0.038
0.203	20.059	-0.005	-0.016	-0.018	0.003	0.687	0.270	0.730	0.755	1.974	1.901	-0.070	-0.053	-0.038
0.203	20.065	-0.004	-0.018	-0.019	-0.006	0.690	0.288	0.821	0.766	1.975	1.902	-0.072	-0.047	-0.033
0.203	20.062	0.000	-0.015	-0.020	-0.013	0.663	0.318	0.805	0.800	1.977	1.897	-0.075	-0.041	-0.029
0.203	20.068	0.003	-0.016	-0.020	-0.022	0.659	0.347	0.732	0.826	1.973	1.903	-0.077	-0.033	-0.027
0.204	20.059	0.005	-0.019	-0.020	-0.029	0.675	0.355	0.641	0.846	1.957	1.902	-0.082	-0.027	-0.023
0.204	20.059	0.007	-0.022	-0.019	-0.036	0.699	0.344	0.597	0.822	1.965	1.899	-0.085	-0.019	-0.018
0.204	20.053	0.008	-0.023	-0.018	-0.040	0.701	0.336	0.640	0.802	1.962	1.896	-0.092	-0.012	-0.013
0.204	20.074	0.013	-0.027	-0.015	-0.046	0.710	0.313	0.730	0.734	1.968	1.902	-0.097	-0.005	-0.008
0.204	20.056	0.016	-0.027	-0.016	-0.048	0.696	0.301	0.790	0.678	1.964	1.901	-0.100	0.003	-0.005
0.205	20.078	0.022	-0.028	-0.015	-0.053	0.669	0.339	0.790	0.666	1.969	1.897	-0.106	0.007	-0.001
0.205	20.062	0.027	-0.032	-0.018	-0.054	0.664	0.369	0.741	0.695	1.975	1.895	-0.109	0.008	0.004
0.205	20.074	0.028	-0.034	-0.019	-0.057	0.648	0.400	0.671	0.743	1.975	1.896	-0.114	0.012	0.006
0.205	20.068	0.029	-0.033	-0.022	-0.056	0.674	0.437	0.623	0.744	1.960	1.904	-0.117	0.011	0.006
0.205	20.068	0.029	-0.036	-0.025	-0.055	0.674	0.393	0.603	0.769	1.969	1.896	-0.119	0.010	0.007
0.206	20.074	0.032	-0.037	-0.030	-0.054	0.716	0.381	0.635	0.748	1.968	1.893	-0.118	0.006	0.002
0.206	20.074	0.030	-0.041	-0.034	-0.046	0.727	0.376	0.679	0.747	1.972	1.904	-0.119	0.001	0.003
0.206	20.071	0.034	-0.044	-0.040	-0.041	0.728	0.368	0.722	0.760	1.968	1.902	-0.116	-0.005	-0.002
0.206	20.081	0.036	-0.044	-0.044	-0.032	0.730	0.399	0.738	0.783	1.960	1.895	-0.114	-0.013	-0.006
0.206	20.056	0.041	-0.045	-0.050	-0.021	0.732	0.420	0.705	0.822	1.962	1.898	-0.109	-0.023	-0.012
0.207	20.065	0.043	-0.043	-0.053	-0.006	0.734	0.445	0.644	0.854	1.963	1.892	-0.105	-0.033	-0.019
0.207	20.065	0.048	-0.043	-0.054	0.006	0.757	0.433	0.589	0.840	1.957	1.895	-0.099	-0.043	-0.027
0.207	20.062	0.047	-0.041	-0.059	0.023	0.779	0.421	0.572	0.833	1.967	1.892	-0.092	-0.054	-0.035
0.207	20.059	0.049	-0.041	-0.059	0.036	0.785	0.397	0.626	0.801	1.960	1.895	-0.085	-0.061	-0.044
0.207	20.056	0.048	-0.041	-0.061	0.050	0.785	0.376	0.660	0.786	1.968	1.894	-0.079	-0.073	-0.053
0.208	20.041	0.047	-0.038	-0.058	0.061	0.787	0.381	0.716	0.785	1.966	1.896	-0.070	-0.080	-0.062
0.208	20.065	0.046	-0.039	-0.057	0.074	0.773	0.391	0.699	0.805	1.963	1.894	-0.063	-0.087	-0.069
0.208	20.050	0.049	-0.037	-0.053	0.082	0.781	0.390	0.670	0.833	1.954	1.894	-0.056	-0.092	-0.079
0.208	20.050	0.049	-0.037	-0.049	0.089	0.793	0.416	0.615	0.843	1.968	1.894	-0.051	-0.094	-0.086
0.208	20.044	0.049	-0.035	-0.040	0.095	0.802	0.396	0.567	0.840	1.959	1.898	-0.046	-0.094	-0.092
0.209	20.053	0.050	-0.034	-0.037	0.101	0.808	0.350	0.567	0.790	1.963	1.899	-0.042	-0.091	-0.098
0.209	20.016	0.047	-0.036	-0.029	0.102	0.797	0.304	0.587	0.740	1.963	1.897	-0.042	-0.087	-0.103
0.209	20.044	0.045	-0.035	-0.021	0.105	0.772	0.269	0.646	0.708	1.961	1.898	-0.040	-0.080	-0.109
0.209	20.035	0.044	-0.035	-0.013	0.103	0.761	0.278	0.670	0.724	1.962	1.890	-0.045	-0.073	-0.110
0.209	20.059	0.037	-0.036	-0.005	0.102	0.729	0.327	0.695	0.777	1.958	1.897	-0.048	-0.059	-0.114
0.210	20.050	0.034	-0.037	0.002	0.098	0.715	0.340	0.648	0.824	1.965	1.894	-0.054	-0.047	-0.114
0.210	20.041	0.031	-0.039	0.005	0.094	0.730	0.351	0.630	0.824	1.955	1.885	-0.061	-0.035	-0.115
0.210	20.041	0.029	-0.041	0.008	0.087	0.715	0.331	0.655	0.791	1.956	1.894	-0.069	-0.021	-0.115
0.210	20.047	0.030	-0.043	0.009	0.081	0.702	0.278	0.672	0.729	1.964	1.892	-0.079	-0.008	-0.112
0.210	20.056	0.030	-0.047	0.009	0.074	0.712	0.268	0.731	0.684	1.951	1.893	-0.089	0.004	-0.114
0.211	20.053	0.029	-0.047	0.011	0.064	0.700	0.271	0.768	0.693	1.951	1.893	-0.102	0.016	-0.108
0.211	20.071	0.026	-0.049	0.007	0.055	0.684	0.283	0.800	0.760	1.950	1.887	-0.112	0.027	-0.106
0.211	20.044	0.024	-0.050	0.005	0.045	0.691	0.305	0.821	0.822	1.942	1.888	-0.123	0.036	-0.102
0.211	20.065	0.020	-0.051	0.003	0.033	0.647	0.323	0.809	0.886	1.950	1.885	-0.135	0.042	-0.099
0.211	20.053	0.018	-0.051	0.001	0.021	0.625	0.359	0.803	0.876	1.951	1.885	-0.145	0.048	-0.094
0.212	20.065	0.013	-0.051	-0.002	0.009	0.622	0.369	0.772	0.851	1.949	1.887	-0.152	0.050	-0.091
0.212	20.062	0.011	-0.050	-0.004	-0.006	0.623	0.357	0.771	0.810	1.951	1.884	-0.160	0.052	-0.085
0.212	20.071	0.010	-0.050	-0.007	-0.018	0.611	0.377	0.771	0.808	1.939	1.885	-0.166	0.049	-0.085
0.212	20.081	0.010	-0.049	-0.009	-0.031	0.613	0.376	0.766	0.799	1.945	1.886	-0.171	0.044	-0.083
0.212	20.090	0.011	-0.046	-0.011	-0.045	0.591	0.395	0.780	0.828	1.948	1.884	-0.172	0.041	-0.081
0.213	20.093	0.012	-0.043	-0.015	-0.055	0.572	0.402	0.793	0.838	1.950	1.890	-0.170	0.034	-0.083
0.213	20.081	0.011	-0.040	-0.017	-0.063	0.571	0.398	0.805	0.858	1.955	1.884	-0.172	0.026	-0.082
0.213	20.090	0.011	-0.035	-0.022	-0.068	0.562	0.376	0.815	0.824	1.946	1.884	-0.168	0.018	-0.087
0.213	20.099	0.012	-0.032	-0.027	-0.068	0.563	0.352	0.805	0.819	1.947	1.889	-0.165	0.006	-0.086
0.213	20.105	0.012	-0.027	-0.033	-0.065	0.530	0.340	0.769	0.827	1.945	1.888	-0.159	-0.003	-0.090
0.214	20.096	0.013	-0.024	-0.038	-0.059	0.516	0.334	0.730	0.841	1.954	1.883	-0.153	-0.012	-0.090
0.214	20.123	0.016	-0.021	-0.045	-0.047	0.489	0.356	0.708	0.901	1.948	1.885	-0.146	-0.020	-0.099
0.214	20.114	0.019	-0.018	-0.052	-0.036	0.476	0.359	0.759	0.918	1.952	1.883	-0.139	-0.027	-0.104
0.214	20.117	0.021	-0.016	-0.064	-0.022	0.461	0.372	0.780	0.933	1.941	1.884	-0.130	-0.034	-0.111
0.214	20.102	0.024	-0.013	-0.073	-0.006	0.463	0.337	0.821	0.920	1.954	1.885	-0.124	-0.039	-0.115
0.215	20.123	0.023	-0.008	-0.084	0.009	0.443	0.317	0.801	0.932	1.947	1.878	-0.113	-0.040	-0.122
0.215	20.096	0.024	-0.007	-0.096	0.023	0.454	0.298	0.784	0.916	1.951	1.884	-0.109	-0.048	-0.127
0.215	20.120	0.025	-0.008	-0.107	0.037	0.458	0.286	0.716	0.983	1.942	1.886	-0.104	-0.043	-0.129
0.215	20.090	0.024	-0.008	-0.121	0.048	0.441	0.283	0.656	0.941	1.945	1.876	-0.098	-0.041	-0.136
0.215	20.114	0.026	-0.009	-0.135	0.057	0.436	0.307	0.607	0.962	1.937	1.883	-0.094	-0.040	-0.138
0.216	20.099	0.028	-0.013	-0.147	0.063	0.410	0.308	0.593	0.974	1.937	1.875	-0.090	-0.038	-0.138
0.216	20.108	0.033	-0.014	-0.157	0.067	0.407	0.323	0.604	1.013	1.949	1.880	-0.089	-0.034	-0.138
0.216	20.090	0.035	-0.019	-0.167	0.065	0.377	0.324	0.608	0.998	1.945	1.883	-0.088	-0.031	-0.135
0.216	20.120	0.038	-0.023	-0.174	0.063	0.400	0.323	0.581	0.978	1.952	1.882	-0.088	-0.026	-0.133
0.216	20.108	0.040	-0.027	-0.181	0.054	0.396	0.317	0.518	0.963	1.943	1.889	-0.089	-0.022	-0.133
0.217	20.102	0.041	-0.031	-0.184	0.045	0.434	0.310	0.509	0.958	1.941	1.882	-0.091	-0.018	-0.128
0.217	20.102	0.043	-0.032	-0.188	0.036	0.461	0.312	0.476	0.981	1.943	1.879	-0.092	-0.015	-0.123
0.217	20.099	0.044	-0.034	-0.193	0.021	0.483	0.323	0.448	1.008	1.946	1.877	-0.092	-0.012	-0.120
0.217	20.114	0.047	-0.036	-0.193	0.006	0.493	0.317	0.474	1.051	1.940	1.877	-0.096	-0.011	-0.111
0.217	20.120	0.047	-0.039	-0.194	-0.007	0.509	0.318	0.481	1.055	1.946	1.877	-0.098	-0.010	-0.106
0.218	20.120	0.050	-0.037	-0.195	-0.022	0.513	0.319	0.519	1.051	1.946	1.879	-0.099	-0.006	-0.100
0.218	20.120	0.052	-0.037	-0.194	-0.031	0.506	0.313	0.513	1.011	1.941	1.881	-0.101	-0.005	-0.091
0.218	20.129	0.053	-0.037	-0.194	-0.040	0.497	0.310	0.522	0.998	1.940	1.878	-0.102	-0.005	-0.088
0.218	20.132	0.053	-0.036	-0.193	-0.052	0.472	0.331	0.517	1.013	1.945	1.879	-0.104	-0.005	-0.081
0.218	20.145	0.051	-0.035	-0.191	-0.060	0.449	0.307	0.493	1.053	1.939	1.878	-0.106	-0.005	-0.076
0.219	20.129	0.050	-0.031	-0.191	-0.069	0.441	0.330	0.494	1.103	1.943	1.872	-0.104	-0.004	-0.073
0.219	20.154	0.048	-0.030	-0.187	-0.075	0.451	0.325	0.493	1.102	1.946	1.869	-0.104	-0.004	-0.069
0.219	20.129	0.047	-0.025	-0.185	-0.079	0.460	0.324	0.505	1.094	1.947	1.877	-0.104	-0.003	-0.066
0.219	20.129	0.048	-0.022	-0.185	-0.084	0.465	0.326	0.512	1.124	1.936	1.878	-0.102	-0.002	-0.064
0.219	20.129	0.051	-0.017	-0.186	-0.087	0.477	0.330	0.468	1.117	1.947	1.873	-0.101	0.001	-0.061
0.220	20.135	0.050	-0.014	-0.185	-0.087	0.478	0.335	0.429	1.143	1.935	1.874	-0.099	0.003	-0.061
0.220	20.145	0.053	-0.012	-0.187	-0.087	0.497	0.338	0.401	1.186	1.937	1.878	-0.098	0.005	-0.058
0.220	20.154	0.048	-0.009	-0.186	-0.085	0.496	0.347	0.413	1.143	1.936	1.869	-0.096	0.010	-0.058
0.220	20.154	0.049	-0.009	-0.185	-0.081	0.506	0.343	0.439	1.107	1.939	1.873	-0.095	0.013	-0.057
0.220	20.163	0.046	-0.008	-0.189	-0.077	0.506	0.336	0.470	1.094	1.937	1.876	-0.095	0.017	-0.058
0.221	20.157	0.045	-0.010	-0.192	-0.070	0.529	0.327	0.470	1.100	1.937	1.872	-0.094	0.022	-0.058
0.221	20.151	0.042	-0.012	-0.192	-0.063	0.543	0.332	0.474	1.130	1.942	1.868	-0.094	0.026	-0.061
0.221	20.157	0.041	-0.016	-0.195	-0.055	0.569	0.319	0.450	1.148	1.949	1.871	-0.093	0.029	-0.062
0.221	20.163	0.043	-0.019	-0.194	-0.047	0.585	0.328	0.441	1.178	1.926	1.876	-0.093	0.034	-0.066
0.221	20.181	0.040	-0.024	-0.194	-0.039	0.593	0.342	0.453	1.178	1.937	1.880	-0.092	0.034	-0.067
0.222	20.184	0.038	-0.028	-0.195	-0.030	0.602	0.364	0.448	1.175	1.941	1.861	-0.089	0.038	-0.072
0.222	20.175	0.035	-0.032	-0.195	-0.022	0.585	0.379	0.471	1.154	1.947	1.866	-0.090	0.036	-0.073
0.222	20.169	0.033	-0.038	-0.193	-0.013	0.579	0.384	0.514	1.156	1.944	1.870	-0.089	0.035	-0.077
0.222	20.163	0.028	-0.041	-0.188	-0.004	0.558	0.378	0.520	1.163	1.943	1.874	-0.089	0.031	-0.080
0.222	20.178	0.026	-0.048	-0.182	0.006	0.543	0.360	0.538	1.172	1.946	1.867	-0.087	0.029	-0.083
0.223	20.184	0.024	-0.051	-0.174	0.015	0.510	0.360	0.485	1.159	1.949	1.875	-0.086	0.021	-0.087
0.223	20.187	0.023	-0.056	-0.163	0.022	0.508	0.356	0.446	1.157	1.941	1.869	-0.083	0.015	-0.090
0.223	20.166	0.021	-0.059	-0.153	0.028	0.528	0.356	0.411	1.111	1.944	1.869	-0.082	0.007	-0.095
0.223	20.187	0.022	-0.063	-0.139	0.033	0.537	0.377	0.426	1.071	1.944	1.868	-0.078	-0.001	-0.099
0.223	20.178	0.023	-0.065	-0.127	0.036	0.560	0.429	0.428	1.077	1.939	1.868	-0.077	-0.012	-0.106
0.224	20.212	0.022	-0.070	-0.112	0.038	0.550	0.439	0.448	1.088	1.938	1.860	-0.074	-0.020	-0.111
0.224	20.184	0.021	-0.071	-0.097	0.037	0.525	0.465	0.441	1.101	1.943	1.870	-0.072	-0.031	-0.117
0.224	20.212	0.018	-0.073	-0.082	0.035	0.484	0.475	0.450	1.131	1.934	1.867	-0.069	-0.038	-0.120
0.224	20.178	0.015	-0.073	-0.069	0.032	0.441	0.475	0.369	1.130	1.944	1.866	-0.066	-0.048	-0.125
0.224	20.215	0.012	-0.073	-0.052	0.028	0.448	0.483	0.332	1.131	1.933	1.863	-0.066	-0.056	-0.129
0.225	20.181	0.008	-0.072	-0.040	0.023	0.486	0.492	0.298	1.147	1.937	1.862	-0.067	-0.060	-0.134
0.225	20.221	0.000	-0.069	-0.026	0.019	0.506	0.519	0.268	1.160	1.932	1.861	-0.065	-0.063	-0.139
0.225	20.181	0.002	-0.068	-0.015	0.013	0.534	0.537	0.286	1.166	1.945	1.860	-0.066	-0.067	-0.140
0.225	20.197	0.000	-0.068	-0.003	0.007	0.497	0.516	0.301	1.204	1.946	1.864	-0.064	-0.066	-0.143
0.225	20.190	-0.004	-0.066	0.007	0.001	0.452	0.500	0.280	1.228	1.940	1.862	-0.068	-0.064	-0.146
0.226	20.184	-0.005	-0.065	0.017	-0.003	0.449	0.478	0.291	1.251	1.938	1.860	-0.071	-0.060	-0.143
0.226	20.203	-0.007	-0.065	0.026	-0.009	0.429	0.462	0.277	1.238	1.937	1.858	-0.074	-0.053	-0.146
0.226	20.209	-0.008	-0.063	0.032	-0.014	0.468	0.499	0.268	1.246	1.930	1.855	-0.080	-0.044	-0.142
0.226	20.206	-0.011	-0.066	0.039	-0.017	0.514	0.532	0.266	1.277	1.932	1.853	-0.086	-0.035	-0.142
0.226	20.187	-0.015	-0.067	0.043	-0.021	0.547	0.569	0.257	1.289	1.928	1.860	-0.092	-0.024	-0.138
0.227	20.221	-0.020	-0.067	0.045	-0.024	0.537	0.589	0.228	1.304	1.928	1.860	-0.098	-0.012	-0.133
0.227	20.181	-0.025	-0.067	0.046	-0.027	0.502	0.579	0.208	1.328	1.932	1.860	-0.104	0.000	-0.128
0.227	20.218	-0.029	-0.063	0.044	-0.025	0.423	0.578	0.201	1.307	1.936	1.858	-0.109	0.013	-0.124
0.227	20.193	-0.032	-0.059	0.039	-0.024	0.347	0.582	0.191	1.304	1.934	1.854	-0.119	0.025	-0.119
0.227	20.215	-0.035	-0.061	0.035	-0.022	0.332	0.577	0.217	1.287	1.928	1.854	-0.122	0.036	-0.115
0.228	20.200	-0.035	-0.059	0.027	-0.016	0.356	0.594	0.209	1.287	1.928	1.855	-0.130	0.049	-0.112
0.228	20.209	-0.038	-0.056	0.019	-0.011	0.431	0.631	0.232	1.301	1.935	1.856	-0.135	0.055	-0.111
0.228	20.206	-0.039	-0.056	0.008	-0.002	0.483	0.618	0.214	1.348	1.930	1.858	-0.137	0.062	-0.108
0.228	20.206	-0.039	-0.054	-0.003	0.005	0.514	0.592	0.195	1.398	1.932	1.861	-0.139	0.069	-0.108
0.228	20.200	-0.044	-0.054	-0.017	0.015	0.487	0.609	0.163	1.448	1.930	1.855	-0.140	0.072	-0.110
0.229	20.181	-0.047	-0.055	-0.028	0.024	0.462	0.565	0.163	1.468	1.931	1.860	-0.138	0.074	-0.113
0.229	20.200	-0.050	-0.055	-0.040	0.037	0.464	0.578	0.154	1.471	1.930	1.851	-0.132	0.074	-0.117
0.229	20.166	-0.051	-0.056	-0.049	0.045	0.490	0.570	0.153	1.457	1.931	1.852	-0.128	0.071	-0.121
0.229	20.200	-0.050	-0.055	-0.063	0.057	0.510	0.575	0.120	1.439	1.919	1.856	-0.120	0.068	-0.126
0.229	20.187	-0.046	-0.055	-0.071	0.065	0.572	0.554	0.088	1.435	1.936	1.850	-0.111	0.061	-0.132
0.230	20.187	-0.046	-0.055	-0.081	0.075	0.607	0.572	0.043	1.446	1.930	1.860	-0.104	0.054	-0.137
0.230	20.203	-0.047	-0.055	-0.091	0.080	0.635	0.540	0.046	1.468	1.924	1.856	-0.095	0.046	-0.145
0.230	20.212	-0.050	-0.055	-0.100	0.087	0.654	0.549	0.043	1.482	1.919	1.853	-0.086	0.036	-0.150
0.230	20.218	-0.054	-0.055	-0.107	0.087	0.607	0.540	0.070	1.468	1.924	1.851	-0.076	0.027	-0.156
0.230	20.209	-0.054	-0.056	-0.114	0.088	0.605	0.559	0.092	1.450	1.921	1.850	-0.066	0.018	-0.159
0.231	20.203	-0.057	-0.058	-0.119	0.084	0.594	0.566	0.112	1.438	1.917	1.852	-0.057	0.008	-0.165
0.231	20.230	-0.055	-0.059	-0.123	0.078	0.638	0.582	0.106	1.428	1.918	1.850	-0.048	-0.001	-0.170
0.231	20.224	-0.053	-0.061	-0.128	0.068	0.666	0.592	0.101	1.477	1.925	1.852	-0.041	-0.009	-0.170
0.231	20.218	-0.048	-0.063	-0.131	0.055	0.696	0.579	0.084	1.498	1.918	1.853	-0.034	-0.015	-0.173
0.231	20.215	-0.045	-0.063	-0.133	0.041	0.674	0.557	0.083	1.500	1.918	1.854	-0.032	-0.020	-0.172
0.232	20.200	-0.041	-0.064	-0.134	0.025	0.620	0.508	0.076	1.471	1.916	1.850	-0.030	-0.023	-0.173
0.232	20.206	-0.041	-0.062	-0.135	0.006	0.566	0.470	0.088	1.423	1.918	1.851	-0.027	-0.028	-0.171
0.232	20.197	-0.042	-0.061	-0.136	-0.014	0.566	0.446	0.109	1.372	1.916	1.848	-0.031	-0.029	-0.168
0.232	20.209	-0.045	-0.061	-0.137	-0.032	0.541	0.463	0.116	1.379	1.918	1.854	-0.030	-0.027	-0.165
0.232	20.200	-0.046	-0.060	-0.139	-0.053	0.579	0.445	0.119	1.368	1.915	1.849	-0.034	-0.027	-0.161
0.233	20.206	-0.046	-0.059	-0.142	-0.071	0.587	0.458	0.114	1.406	1.907	1.849	-0.040	-0.022	-0.155
0.233	20.200	-0.043	-0.059	-0.145	-0.090	0.604	0.427	0.123	1.431	1.919	1.844	-0.044	-0.019	-0.152
0.233	20.209	-0.037	-0.060	-0.147	-0.104	0.613	0.408	0.133	1.467	1.918	1.848	-0.054	-0.013	-0.145
0.233	20.200	-0.037	-0.059	-0.150	-0.119	0.596	0.381	0.153	1.474	1.915	1.850	-0.061	-0.007	-0.140
0.233	20.212	-0.034	-0.060	-0.154	-0.132	0.573	0.348	0.143	1.421	1.928	1.844	-0.069	0.000	-0.137
0.234	20.224	-0.035	-0.060	-0.160	-0.141	0.583	0.354	0.173	1.403	1.919	1.848	-0.076	0.003	-0.131
0.234	20.197	-0.038	-0.060	-0.169	-0.149	0.584	0.364	0.177	1.387	1.911	1.849	-0.084	0.007	-0.128
0.234	20.203	-0.042	-0.059	-0.176	-0.154	0.625	0.396	0.159	1.373	1.918	1.848	-0.090	0.011	-0.122
0.234	20.200	-0.046	-0.059	-0.184	-0.154	0.666	0.409	0.143	1.450	1.912	1.851	-0.096	0.013	-0.121
0.234	20.206	-0.046	-0.057	-0.194	-0.155	0.698	0.432	0.136	1.462	1.915	1.840	-0.100	0.015	-0.119
0.235	20.193	-0.043	-0.059	-0.205	-0.153	0.684	0.426	0.160	1.478	1.910	1.845	-0.103	0.013	-0.117
0.235	20.197	-0.041	-0.059	-0.216	-0.147	0.641	0.413	0.166	1.477	1.911	1.842	-0.106	0.013	-0.117
0.235	20.175	-0.038	-0.059	-0.227	-0.142	0.614	0.431	0.180	1.438	1.917	1.858	-0.101	0.009	-0.120
0.235	20.181	-0.031	-0.063	-0.240	-0.134	0.619	0.451	0.184	1.423	1.924	1.846	-0.103	0.001	-0.120
0.235	20.184	-0.030	-0.066	-0.251	-0.125	0.623	0.470	0.173	1.427	1.917	1.852	-0.099	-0.002	-0.124
0.236	20.193	-0.030	-0.066	-0.262	-0.116	0.657	0.497	0.189	1.455	1.915	1.848	-0.095	-0.011	-0.127
0.236	20.175	-0.034	-0.070	-0.272	-0.107	0.684	0.494	0.218	1.460	1.918	1.838	-0.090	-0.016	-0.128
0.236	20.169	-0.038	-0.070	-0.280	-0.098	0.698	0.484	0.269	1.491	1.913	1.841	-0.082	-0.027	-0.134
0.236	20.135	-0.042	-0.072	-0.289	-0.090	0.701	0.493	0.295	1.507	1.921	1.846	-0.075	-0.035	-0.135
0.236	20.142	-0.046	-0.072	-0.294	-0.078	0.689	0.508	0.301	1.517	1.911	1.840	-0.068	-0.044	-0.139
0.237	20.157	-0.046	-0.075	-0.298	-0.067	0.679	0.531	0.283	1.492	1.912	1.845	-0.060	-0.053	-0.142
0.237	20.151	-0.046	-0.079	-0.299	-0.061	0.664	0.570	0.268	1.470	1.907	1.836	-0.052	-0.062	-0.146
0.237	20.139	-0.044	-0.080	-0.301	-0.054	0.655	0.611	0.260	1.445	1.920	1.840	-0.046	-0.068	-0.150
0.237	20.132	-0.042	-0.083	-0.300	-0.045	0.662	0.627	0.260	1.413	1.911	1.843	-0.037	-0.076	-0.155
0.237	20.142	-0.041	-0.087	-0.298	-0.039	0.681	0.635	0.235	1.413	1.918	1.843	-0.031	-0.080	-0.157
0.238	20.148	-0.042	-0.091	-0.293	-0.031	0.692	0.628	0.221	1.442	1.915	1.849	-0.025	-0.085	-0.158
0.238	20.148	-0.047	-0.095	-0.289	-0.022	0.674	0.620	0.191	1.518	1.917	1.850	-0.020	-0.086	-0.164
0.238	20.151	-0.052	-0.098	-0.281	-0.022	0.666	0.640	0.173	1.545	1.909	1.848	-0.016	-0.087	-0.165
0.238	20.154	-0.057	-0.101	-0.275	-0.017	0.654	0.657	0.169	1.531	1.916	1.844	-0.012	-0.087	-0.171
0.238	20.135	-0.060	-0.101	-0.267	-0.017	0.651	0.704	0.147	1.507	1.914	1.832	-0.011	-0.085	-0.173
0.239	20.132	-0.062	-0.102	-0.256	-0.017	0.651	0.731	0.190	1.458	1.913	1.838	-0.010	-0.082	-0.179
0.239	20.132	-0.062	-0.102	-0.246	-0.019	0.646	0.739	0.199	1.454	1.914	1.842	-0.011	-0.078	-0.178
0.239	20.123	-0.062	-0.102	-0.237	-0.021	0.631	0.728	0.206	1.448	1.910	1.838	-0.011	-0.074	-0.183
0.239	20.123	-0.065	-0.102	-0.224	-0.026	0.615	0.715	0.181	1.496	1.914	1.836	-0.014	-0.067	-0.182
0.239	20.132	-0.070	-0.103	-0.214	-0.032	0.592	0.680	0.167	1.547	1.909	1.832	-0.017	-0.061	-0.187
0.240	20.126	-0.074	-0.103	-0.204	-0.041	0.580	0.663	0.182	1.576	1.913	1.835	-0.023	-0.054	-0.183
0.240	20.139	-0.080	-0.104	-0.194	-0.047	0.578	0.660	0.210	1.563	1.907	1.840	-0.025	-0.048	-0.186
0.240	20.126	-0.086	-0.105	-0.184	-0.059	0.573	0.658	0.245	1.519	1.919	1.834	-0.032	-0.040	-0.182
0.240	20.148	-0.089	-0.106	-0.176	-0.069	0.573	0.669	0.270	1.484	1.902	1.831	-0.036	-0.034	-0.184
0.240	20.126	-0.088	-0.107	-0.168	-0.080	0.551	0.680	0.286	1.502	1.909	1.833	-0.044	-0.025	-0.180
0.241	20.157	-0.087	-0.106	-0.160	-0.094	0.530	0.684	0.288	1.516	1.906	1.837	-0.050	-0.021	-0.178
0.241	20.142	-0.085	-0.106	-0.154	-0.105	0.504	0.656	0.293	1.552	1.912	1.839	-0.057	-0.015	-0.174
0.241	20.151	-0.084	-0.103	-0.149	-0.116	0.484	0.652	0.296	1.581	1.908	1.834	-0.063	-0.010	-0.168
0.241	20.142	-0.084	-0.102	-0.140	-0.127	0.463	0.630	0.313	1.583	1.910	1.837	-0.072	-0.007	-0.165
0.241	20.139	-0.084	-0.099	-0.138	-0.138	0.478	0.623	0.348	1.605	1.913	1.834	-0.077	-0.003	-0.160
0.242	20.142	-0.088	-0.096	-0.135	-0.147	0.483	0.617	0.364	1.571	1.916	1.835	-0.083	-0.001	-0.157
0.242	20.142	-0.090	-0.095	-0.133	-0.154	0.483	0.615	0.369	1.530	1.914	1.834	-0.089	-0.000	-0.154
0.242	20.142	-0.093	-0.096	-0.135	-0.160	0.470	0.625	0.360	1.528	1.918	1.844	-0.094	-0.000	-0.151
0.242	20.126	-0.095	-0.093	-0.136	-0.163	0.453	0.638	0.305	1.527	1.901	1.840	-0.098	-0.001	-0.150
0.242	20.157	-0.098	-0.092	-0.136	-0.164	0.454	0.646	0.295	1.538	1.908	1.838	-0.103	-0.001	-0.149
0.243	20.129	-0.096	-0.092	-0.141	-0.162	0.490	0.642	0.298	1.583	1.915	1.840	-0.107	-0.004	-0.149
0.243	20.151	-0.096	-0.091	-0.145	-0.157	0.542	0.618	0.315	1.586	1.906	1.837	-0.108	-0.003	-0.151
0.243	20.166	-0.093	-0.090	-0.149	-0.151	0.584	0.595	0.335	1.584	1.908	1.834	-0.111	-0.007	-0.152
0.243	20.151	-0.092	-0.089	-0.152	-0.141	0.642	0.587	0.344	1.576	1.916	1.833	-0.110	-0.010	-0.154
0.243	20.163	-0.092	-0.087	-0.156	-0.128	0.668	0.577	0.330	1.560	1.915	1.833	-0.110	-0.010	-0.156
0.244	20.160	-0.094	-0.083	-0.157	-0.116	0.668	0.595	0.337	1.552	1.905	1.828	-0.109	-0.015	-0.158
0.244	20.169	-0.098	-0.081	-0.162	-0.101	0.653	0.623	0.335	1.552	1.916	1.829	-0.107	-0.014	-0.163
0.244	20.145	-0.098	-0.079	-0.166	-0.087	0.651	0.656	0.278	1.547	1.911	1.835	-0.105	-0.016	-0.166
0.244	20.169	-0.100	-0.078	-0.165	-0.071	0.668	0.655	0.260	1.538	1.910	1.833	-0.102	-0.018	-0.168
0.244	20.157	-0.097	-0.079	-0.164	-0.058	0.724	0.627	0.284	1.536	1.910	1.832	-0.100	-0.018	-0.168
0.245	20.172	-0.095	-0.076	-0.164	-0.046	0.788	0.611	0.295	1.498	1.916	1.829	-0.094	-0.018	-0.169
0.245	20.139	-0.090	-0.075	-0.158	-0.037	0.832	0.606	0.308	1.455	1.915	1.835	-0.092	-0.019	-0.168
0.245	20.166	-0.087	-0.075	-0.154	-0.027	0.823	0.621	0.313	1.417	1.910	1.830	-0.089	-0.017	-0.168
0.245	20.148	-0.084	-0.072	-0.145	-0.025	0.797	0.637	0.255	1.419	1.910	1.831	-0.084	-0.018	-0.167
0.245	20.181	-0.081	-0.072	-0.136	-0.023	0.785	0.639	0.250	1.433	1.907	1.829	-0.080	-0.016	-0.164
0.246	20.148	-0.082	-0.073	-0.126	-0.027	0.729	0.644	0.255	1.459	1.907	1.835	-0.076	-0.013	-0.163
0.246	20.145	-0.079	-0.075	-0.115	-0.031	0.749	0.641	0.283	1.470	1.904	1.830	-0.073	-0.013	-0.159
0.246	20.139	-0.084	-0.077	-0.103	-0.041	0.746	0.625	0.326	1.455	1.900	1.835	-0.070	-0.008	-0.156
0.246	20.139	-0.082	-0.081	-0.092	-0.053	0.788	0.598	0.326	1.459	1.906	1.831	-0.066	-0.006	-0.153
0.246	20.145	-0.083	-0.079	-0.080	-0.065	0.778	0.611	0.293	1.459	1.901	1.830	-0.064	-0.002	-0.152
0.247	20.154	-0.078	-0.083	-0.069	-0.081	0.801	0.628	0.260	1.452	1.901	1.832	-0.059	0.001	-0.148
0.247	20.148	-0.076	-0.082	-0.060	-0.096	0.791	0.656	0.208	1.452	1.898	1.838	-0.059	0.005	-0.145
0.247	20.142	-0.070	-0.087	-0.052	-0.113	0.798	0.657	0.207	1.437	1.906	1.832	-0.056	0.009	-0.141
0.247	20.129	-0.069	-0.085	-0.050	-0.128	0.802	0.659	0.221	1.389	1.902	1.835	-0.056	0.013	-0.136
0.247	20.139	-0.066	-0.089	-0.046	-0.143	0.819	0.618	0.249	1.343	1.904	1.834	-0.053	0.016	-0.131
0.248	20.132	-0.066	-0.088	-0.048	-0.156	0.824	0.603	0.311	1.355	1.901	1.835	-0.054	0.020	-0.126
0.248	20.148	-0.066	-0.094	-0.049	-0.168	0.825	0.578	0.328	1.361	1.906	1.833	-0.053	0.023	-0.120
0.248	20.129	-0.066	-0.094	-0.057	-0.178	0.803	0.603	0.314	1.378	1.898	1.830	-0.053	0.028	-0.116
0.248	20.139	-0.064	-0.095	-0.061	-0.187	0.799	0.626	0.300	1.410	1.901	1.829	-0.051	0.029	-0.109
0.248	20.129	-0.063	-0.095	-0.068	-0.191	0.776	0.640	0.278	1.446	1.897	1.825	-0.053	0.030	-0.102
0.249	20.142	-0.060	-0.094	-0.076	-0.195	0.777	0.643	0.299	1.435	1.905	1.832	-0.052	0.032	-0.095
0.249	20.145	-0.056	-0.092	-0.085	-0.195	0.766	0.629	0.357	1.421	1.895	1.833	-0.052	0.033	-0.086
0.249	20.163	-0.054	-0.089	-0.096	-0.192	0.771	0.586	0.401	1.401	1.901	1.821	-0.050	0.032	-0.081
0.249	20.139	-0.048	-0.085	-0.108	-0.185	0.757	0.540	0.450	1.381	1.892	1.822	-0.047	0.032	-0.074
0.249	20.148	-0.046	-0.081	-0.117	-0.175	0.744	0.524	0.454	1.361	1.895	1.829	-0.048	0.030	-0.067
0.250	20.154	-0.045	-0.079	-0.127	-0.161	0.720	0.500	0.448	1.383	1.894	1.827	-0.045	0.027	-0.060
