Comment:	20231003 sppedbump
Time	Vehicle Speed	FL Sprung acceleration	FR Sprung acceleration	RL Sprung acceleration	RR Sprung acceleration	FL Unsprung acceleration	FR Unsprung acceleration	RL Unsprung acceleration	RR Unsprung acceleration	Bellow pressure RL	Bellow pressure RR	Acceleration X	Acceleration Y	Acceleration Z
s	km/h	gn	gn	gn	gn	gn	gn	gn	gn	bar	bar	g	g	g
0.000	40.720	0.129	0.092	-0.253	0.321	0.916	-1.004	0.986	2.198	1.836	1.840	-0.070	0.039	-0.082
0.000	40.723	0.136	0.091	-0.254	0.326	0.849	-1.043	1.060	2.110	1.822	1.840	-0.072	0.041	-0.072
0.000	40.750	0.142	0.086	-0.256	0.329	0.775	-1.107	1.089	2.088	1.833	1.844	-0.075	0.044	-0.060
0.001	40.735	0.146	0.084	-0.258	0.330	0.702	-1.163	1.017	2.137	1.837	1.836	-0.079	0.046	-0.050
0.001	40.735	0.151	0.080	-0.259	0.331	0.688	-1.161	0.861	2.190	1.825	1.836	-0.084	0.049	-0.043
0.001	40.732	0.151	0.076	-0.259	0.333	0.729	-1.113	0.743	2.225	1.823	1.842	-0.089	0.052	-0.036
0.001	40.750	0.152	0.071	-0.258	0.331	0.847	-1.039	0.662	2.258	1.823	1.841	-0.093	0.053	-0.026
0.001	40.726	0.156	0.068	-0.257	0.330	0.961	-0.948	0.663	2.251	1.825	1.838	-0.098	0.053	-0.022
0.002	40.750	0.160	0.064	-0.253	0.327	1.001	-0.906	0.748	2.156	1.828	1.831	-0.101	0.055	-0.016
0.002	40.744	0.166	0.064	-0.245	0.321	0.980	-0.917	0.817	2.087	1.824	1.825	-0.109	0.055	-0.010
0.002	40.747	0.171	0.060	-0.234	0.315	0.919	-0.960	0.876	2.056	1.821	1.833	-0.109	0.055	-0.004
0.002	40.744	0.177	0.060	-0.224	0.306	0.813	-1.015	0.874	2.120	1.832	1.823	-0.114	0.051	-0.003
0.002	40.753	0.178	0.059	-0.212	0.293	0.712	-1.034	0.840	2.238	1.822	1.826	-0.119	0.052	0.007
0.003	40.762	0.181	0.058	-0.197	0.292	0.684	-1.016	0.808	2.326	1.817	1.824	-0.125	0.052	0.007
0.003	40.750	0.178	0.058	-0.184	0.279	0.707	-0.966	0.755	2.291	1.814	1.828	-0.127	0.049	0.010
0.003	40.768	0.176	0.056	-0.172	0.274	0.756	-0.956	0.725	2.243	1.819	1.830	-0.133	0.050	0.015
0.003	40.771	0.177	0.057	-0.155	0.268	0.800	-0.958	0.747	2.161	1.814	1.831	-0.137	0.053	0.018
0.003	40.738	0.178	0.054	-0.142	0.264	0.810	-0.970	0.784	2.090	1.817	1.835	-0.140	0.052	0.025
0.004	40.771	0.182	0.054	-0.130	0.260	0.791	-0.956	0.846	2.052	1.822	1.833	-0.143	0.053	0.029
0.004	40.765	0.187	0.052	-0.117	0.256	0.750	-0.896	0.819	2.076	1.823	1.829	-0.145	0.056	0.035
0.004	40.765	0.190	0.052	-0.101	0.251	0.693	-0.804	0.753	2.104	1.815	1.837	-0.150	0.059	0.043
0.004	40.796	0.193	0.050	-0.086	0.249	0.656	-0.716	0.660	2.134	1.821	1.836	-0.151	0.062	0.047
0.004	40.781	0.193	0.052	-0.070	0.244	0.593	-0.642	0.614	2.137	1.817	1.835	-0.152	0.066	0.053
0.005	40.787	0.190	0.051	-0.058	0.245	0.545	-0.602	0.623	2.154	1.823	1.824	-0.153	0.072	0.060
0.005	40.787	0.187	0.052	-0.045	0.248	0.517	-0.630	0.645	2.136	1.817	1.824	-0.153	0.077	0.068
0.005	40.781	0.184	0.053	-0.035	0.253	0.506	-0.679	0.748	2.126	1.810	1.825	-0.152	0.083	0.075
0.005	40.784	0.184	0.053	-0.029	0.261	0.519	-0.738	0.840	2.125	1.812	1.828	-0.149	0.091	0.083
0.005	40.768	0.185	0.054	-0.024	0.273	0.544	-0.762	0.908	2.146	1.817	1.827	-0.148	0.097	0.091
0.006	40.784	0.192	0.051	-0.023	0.291	0.551	-0.742	0.922	2.193	1.820	1.825	-0.145	0.104	0.097
0.006	40.793	0.195	0.050	-0.020	0.308	0.511	-0.665	0.821	2.258	1.812	1.829	-0.140	0.112	0.100
0.006	40.775	0.203	0.051	-0.019	0.327	0.437	-0.536	0.707	2.326	1.809	1.827	-0.134	0.118	0.111
0.006	40.775	0.204	0.049	-0.018	0.350	0.352	-0.447	0.638	2.368	1.812	1.827	-0.129	0.127	0.118
0.006	40.787	0.204	0.048	-0.019	0.368	0.276	-0.395	0.634	2.355	1.815	1.829	-0.121	0.134	0.120
0.007	40.793	0.201	0.048	-0.016	0.391	0.245	-0.392	0.728	2.271	1.812	1.823	-0.116	0.138	0.125
0.007	40.771	0.196	0.050	-0.013	0.414	0.257	-0.426	0.835	2.208	1.812	1.827	-0.109	0.144	0.126
0.007	40.817	0.191	0.052	-0.014	0.435	0.342	-0.472	0.873	2.158	1.821	1.828	-0.100	0.148	0.129
0.007	40.781	0.188	0.056	-0.011	0.461	0.434	-0.507	0.885	2.195	1.824	1.826	-0.092	0.152	0.130
0.007	40.784	0.187	0.060	-0.007	0.484	0.463	-0.501	0.858	2.241	1.823	1.827	-0.081	0.152	0.132
0.008	40.802	0.189	0.061	-0.001	0.507	0.419	-0.483	0.846	2.277	1.813	1.830	-0.073	0.155	0.133
0.008	40.784	0.192	0.056	0.002	0.527	0.289	-0.443	0.804	2.267	1.818	1.832	-0.070	0.162	0.134
0.008	40.775	0.194	0.065	0.009	0.547	0.124	-0.403	0.805	2.211	1.817	1.824	-0.062	0.159	0.133
0.008	40.799	0.196	0.066	0.017	0.561	0.019	-0.369	0.838	2.105	1.814	1.828	-0.055	0.159	0.133
0.008	40.771	0.198	0.067	0.027	0.572	-0.025	-0.316	0.907	2.026	1.809	1.825	-0.051	0.159	0.134
0.009	40.793	0.198	0.065	0.036	0.580	0.011	-0.302	0.883	2.022	1.810	1.819	-0.045	0.157	0.133
0.009	40.796	0.195	0.067	0.044	0.580	0.084	-0.258	0.895	2.094	1.813	1.826	-0.040	0.154	0.131
0.009	40.802	0.195	0.065	0.052	0.578	0.219	-0.256	0.773	2.217	1.805	1.832	-0.036	0.151	0.134
0.009	40.771	0.192	0.066	0.058	0.575	0.249	-0.253	0.675	2.254	1.818	1.824	-0.032	0.149	0.135
0.009	40.802	0.192	0.066	0.058	0.570	0.242	-0.250	0.632	2.258	1.808	1.828	-0.028	0.144	0.133
0.010	40.805	0.194	0.064	0.057	0.562	0.140	-0.230	0.562	2.209	1.813	1.828	-0.026	0.141	0.132
0.010	40.787	0.194	0.063	0.054	0.550	0.002	-0.208	0.542	2.129	1.817	1.830	-0.023	0.139	0.135
0.010	40.793	0.197	0.062	0.046	0.538	-0.051	-0.150	0.572	2.082	1.813	1.835	-0.021	0.133	0.135
0.010	40.799	0.198	0.061	0.036	0.526	-0.068	-0.089	0.619	2.114	1.815	1.834	-0.020	0.131	0.134
0.010	40.808	0.198	0.062	0.025	0.515	-0.026	-0.014	0.656	2.192	1.820	1.826	-0.018	0.126	0.135
0.011	40.796	0.197	0.063	0.015	0.496	0.036	0.053	0.608	2.237	1.817	1.825	-0.016	0.124	0.138
0.011	40.762	0.198	0.062	0.002	0.480	0.090	0.098	0.537	2.305	1.826	1.829	-0.014	0.122	0.133
0.011	40.781	0.200	0.064	-0.012	0.460	0.123	0.124	0.471	2.337	1.822	1.828	-0.015	0.120	0.136
0.011	40.796	0.203	0.067	-0.027	0.442	0.148	0.108	0.482	2.349	1.816	1.827	-0.014	0.117	0.136
0.011	40.793	0.207	0.072	-0.042	0.423	0.169	0.109	0.502	2.295	1.808	1.830	-0.011	0.117	0.136
0.012	40.790	0.213	0.074	-0.057	0.406	0.170	0.143	0.582	2.229	1.806	1.833	-0.011	0.116	0.136
0.012	40.778	0.218	0.077	-0.074	0.387	0.149	0.240	0.637	2.193	1.814	1.825	-0.009	0.115	0.136
0.012	40.775	0.225	0.079	-0.087	0.371	0.114	0.347	0.684	2.210	1.821	1.831	-0.007	0.113	0.137
0.012	40.775	0.225	0.083	-0.099	0.356	0.056	0.465	0.706	2.202	1.814	1.837	-0.011	0.116	0.136
0.012	40.771	0.227	0.084	-0.110	0.345	-0.026	0.466	0.674	2.149	1.815	1.833	-0.007	0.115	0.134
0.013	40.784	0.227	0.086	-0.119	0.336	-0.098	0.380	0.623	2.136	1.818	1.836	-0.004	0.115	0.138
0.013	40.762	0.227	0.089	-0.126	0.330	-0.166	0.257	0.560	2.061	1.822	1.834	-0.008	0.115	0.137
0.013	40.778	0.227	0.095	-0.131	0.327	-0.145	0.175	0.508	1.974	1.819	1.832	-0.009	0.116	0.135
0.013	40.762	0.228	0.099	-0.135	0.329	-0.068	0.171	0.565	1.932	1.820	1.830	-0.009	0.114	0.136
0.013	40.753	0.233	0.104	-0.136	0.331	-0.059	0.290	0.589	1.925	1.823	1.828	-0.011	0.113	0.137
0.014	40.775	0.235	0.108	-0.135	0.338	-0.004	0.435	0.626	1.989	1.823	1.827	-0.012	0.113	0.134
0.014	40.756	0.239	0.111	-0.132	0.345	0.011	0.548	0.670	2.001	1.828	1.838	-0.015	0.113	0.133
0.014	40.768	0.242	0.112	-0.127	0.350	-0.023	0.602	0.653	2.001	1.821	1.835	-0.016	0.110	0.130
0.014	40.762	0.245	0.111	-0.123	0.350	-0.072	0.597	0.633	1.952	1.831	1.838	-0.019	0.111	0.128
0.014	40.762	0.244	0.110	-0.117	0.349	-0.109	0.592	0.590	1.916	1.826	1.837	-0.020	0.107	0.125
0.015	40.759	0.245	0.108	-0.110	0.341	-0.096	0.594	0.595	1.842	1.820	1.834	-0.024	0.103	0.123
0.015	40.765	0.244	0.105	-0.104	0.326	-0.070	0.640	0.602	1.782	1.822	1.834	-0.030	0.100	0.118
0.015	40.756	0.242	0.103	-0.100	0.299	-0.031	0.679	0.638	1.784	1.828	1.841	-0.036	0.097	0.118
0.015	40.744	0.243	0.101	-0.097	0.271	0.010	0.696	0.653	1.804	1.813	1.831	-0.037	0.095	0.115
0.015	40.756	0.244	0.100	-0.099	0.233	0.000	0.664	0.652	1.814	1.814	1.838	-0.041	0.088	0.111
0.016	40.768	0.247	0.099	-0.106	0.189	-0.029	0.596	0.620	1.843	1.818	1.833	-0.046	0.084	0.109
0.016	40.753	0.244	0.098	-0.111	0.139	-0.063	0.554	0.551	1.782	1.819	1.836	-0.050	0.083	0.107
0.016	40.759	0.242	0.100	-0.121	0.084	-0.123	0.603	0.547	1.733	1.820	1.831	-0.049	0.079	0.101
0.016	40.756	0.238	0.104	-0.137	0.025	-0.149	0.738	0.584	1.682	1.826	1.836	-0.053	0.076	0.097
0.016	40.756	0.236	0.104	-0.153	-0.034	-0.111	0.866	0.644	1.627	1.820	1.835	-0.055	0.075	0.096
0.017	40.762	0.234	0.108	-0.173	-0.092	-0.016	0.967	0.724	1.569	1.817	1.839	-0.051	0.074	0.092
0.017	40.756	0.232	0.104	-0.194	-0.146	0.084	0.967	0.771	1.547	1.819	1.832	-0.050	0.072	0.089
0.017	40.768	0.231	0.102	-0.217	-0.197	0.132	0.921	0.722	1.536	1.819	1.840	-0.047	0.072	0.086
0.017	40.735	0.236	0.102	-0.239	-0.241	0.140	0.816	0.628	1.569	1.826	1.843	-0.046	0.073	0.083
0.017	40.768	0.232	0.100	-0.265	-0.273	0.078	0.730	0.559	1.659	1.822	1.848	-0.041	0.073	0.079
0.018	40.765	0.230	0.101	-0.292	-0.299	-0.028	0.738	0.587	1.742	1.825	1.846	-0.037	0.074	0.077
0.018	40.738	0.228	0.103	-0.318	-0.313	-0.107	0.853	0.659	1.734	1.814	1.847	-0.029	0.074	0.074
0.018	40.732	0.224	0.104	-0.344	-0.314	-0.216	1.006	0.723	1.644	1.819	1.840	-0.024	0.076	0.071
0.018	40.738	0.215	0.106	-0.368	-0.304	-0.272	1.160	0.801	1.511	1.824	1.841	-0.018	0.077	0.069
0.018	40.744	0.207	0.109	-0.393	-0.285	-0.279	1.221	0.784	1.435	1.826	1.845	-0.010	0.077	0.066
0.019	40.726	0.199	0.113	-0.415	-0.260	-0.232	1.204	0.689	1.415	1.820	1.846	-0.004	0.077	0.065
0.019	40.741	0.189	0.116	-0.435	-0.230	-0.202	1.102	0.630	1.457	1.828	1.844	0.004	0.067	0.062
0.019	40.738	0.184	0.121	-0.450	-0.193	-0.154	1.026	0.630	1.517	1.828	1.845	0.009	0.079	0.061
0.019	40.741	0.181	0.124	-0.465	-0.157	-0.122	1.030	0.679	1.482	1.824	1.844	0.017	0.078	0.059
0.019	40.744	0.180	0.128	-0.476	-0.123	-0.112	1.108	0.781	1.423	1.824	1.843	0.021	0.080	0.059
0.020	40.717	0.180	0.132	-0.482	-0.089	-0.130	1.261	0.853	1.353	1.818	1.851	0.026	0.081	0.059
0.020	40.717	0.177	0.135	-0.484	-0.062	-0.166	1.383	0.921	1.345	1.821	1.844	0.032	0.079	0.056
0.020	40.735	0.171	0.138	-0.484	-0.044	-0.218	1.447	0.940	1.374	1.819	1.843	0.035	0.076	0.056
0.020	40.723	0.165	0.140	-0.480	-0.033	-0.256	1.409	0.853	1.484	1.827	1.845	0.037	0.076	0.057
0.020	40.723	0.154	0.142	-0.470	-0.029	-0.315	1.340	0.777	1.564	1.829	1.850	0.041	0.076	0.057
0.021	40.726	0.148	0.145	-0.457	-0.033	-0.362	1.295	0.681	1.580	1.829	1.846	0.042	0.071	0.056
0.021	40.753	0.139	0.146	-0.443	-0.045	-0.398	1.301	0.628	1.547	1.828	1.848	0.043	0.069	0.056
0.021	40.720	0.136	0.147	-0.428	-0.064	-0.383	1.358	0.640	1.488	1.827	1.844	0.046	0.066	0.053
0.021	40.738	0.136	0.146	-0.411	-0.086	-0.287	1.457	0.691	1.410	1.834	1.846	0.046	0.063	0.055
0.021	40.714	0.138	0.144	-0.397	-0.112	-0.217	1.532	0.722	1.358	1.829	1.850	0.046	0.060	0.054
0.022	40.717	0.142	0.142	-0.382	-0.141	-0.210	1.580	0.700	1.323	1.832	1.849	0.047	0.057	0.054
0.022	40.707	0.144	0.140	-0.367	-0.169	-0.295	1.590	0.676	1.280	1.827	1.859	0.050	0.053	0.050
0.022	40.720	0.140	0.136	-0.351	-0.196	-0.440	1.587	0.683	1.263	1.831	1.844	0.047	0.049	0.046
0.022	40.732	0.133	0.132	-0.337	-0.224	-0.619	1.602	0.704	1.222	1.834	1.857	0.045	0.045	0.038
0.022	40.717	0.125	0.128	-0.322	-0.246	-0.762	1.676	0.706	1.203	1.828	1.850	0.048	0.039	0.038
0.023	40.707	0.118	0.126	-0.310	-0.262	-0.809	1.796	0.714	1.244	1.824	1.847	0.049	0.033	0.031
0.023	40.695	0.114	0.121	-0.297	-0.275	-0.741	1.911	0.713	1.301	1.824	1.848	0.049	0.030	0.024
0.023	40.701	0.111	0.119	-0.284	-0.284	-0.630	2.008	0.681	1.287	1.830	1.848	0.052	0.024	0.016
0.023	40.723	0.113	0.121	-0.273	-0.283	-0.509	2.023	0.678	1.209	1.827	1.846	0.054	0.018	0.011
0.023	40.717	0.113	0.119	-0.264	-0.275	-0.471	1.973	0.694	1.100	1.827	1.853	0.058	0.015	0.002
0.024	40.717	0.113	0.122	-0.254	-0.264	-0.499	1.902	0.691	0.977	1.830	1.856	0.055	0.010	-0.007
0.024	40.720	0.108	0.126	-0.243	-0.250	-0.555	1.879	0.650	0.910	1.825	1.860	0.058	0.004	-0.014
0.024	40.741	0.099	0.129	-0.229	-0.229	-0.593	1.925	0.587	0.890	1.829	1.862	0.060	-0.000	-0.022
0.024	40.720	0.089	0.134	-0.220	-0.207	-0.608	2.069	0.489	0.933	1.825	1.865	0.060	-0.002	-0.027
0.024	40.717	0.079	0.142	-0.207	-0.182	-0.591	2.242	0.499	0.973	1.823	1.862	0.062	-0.008	-0.032
0.025	40.720	0.072	0.149	-0.191	-0.156	-0.501	2.359	0.568	1.001	1.831	1.865	0.065	-0.014	-0.040
0.025	40.738	0.067	0.154	-0.173	-0.132	-0.445	2.350	0.665	1.004	1.832	1.856	0.063	-0.019	-0.045
0.025	40.729	0.066	0.162	-0.155	-0.107	-0.429	2.238	0.779	0.996	1.822	1.853	0.070	-0.024	-0.050
0.025	40.738	0.063	0.169	-0.131	-0.085	-0.483	2.076	0.837	1.003	1.825	1.854	0.071	-0.029	-0.057
0.025	40.741	0.064	0.173	-0.108	-0.068	-0.546	1.941	0.856	1.009	1.828	1.855	0.073	-0.035	-0.059
0.026	40.726	0.061	0.178	-0.081	-0.056	-0.675	1.929	0.825	0.994	1.826	1.853	0.074	-0.038	-0.062
0.026	40.732	0.058	0.184	-0.053	-0.046	-0.765	2.040	0.778	0.995	1.827	1.849	0.075	-0.044	-0.066
0.026	40.744	0.050	0.188	-0.022	-0.040	-0.791	2.205	0.753	0.987	1.826	1.847	0.076	-0.047	-0.067
0.026	40.747	0.043	0.198	0.006	-0.039	-0.801	2.302	0.756	0.960	1.834	1.860	0.080	-0.052	-0.069
0.026	40.717	0.036	0.207	0.033	-0.041	-0.688	2.320	0.759	0.926	1.829	1.858	0.080	-0.058	-0.068
0.027	40.762	0.029	0.208	0.061	-0.044	-0.543	2.209	0.705	0.876	1.838	1.855	0.082	-0.061	-0.068
0.027	40.741	0.027	0.213	0.089	-0.050	-0.419	2.120	0.604	0.829	1.832	1.866	0.082	-0.066	-0.067
0.027	40.723	0.025	0.214	0.112	-0.060	-0.376	2.035	0.497	0.792	1.829	1.862	0.083	-0.069	-0.063
0.027	40.738	0.020	0.218	0.134	-0.071	-0.397	2.083	0.451	0.816	1.830	1.863	0.086	-0.075	-0.064
0.027	40.723	0.017	0.217	0.153	-0.083	-0.484	2.211	0.453	0.821	1.835	1.861	0.087	-0.078	-0.061
0.028	40.735	0.013	0.217	0.172	-0.095	-0.550	2.331	0.461	0.812	1.829	1.863	0.089	-0.083	-0.059
0.028	40.710	0.006	0.215	0.189	-0.107	-0.535	2.338	0.480	0.810	1.828	1.871	0.094	-0.084	-0.057
0.028	40.765	-0.001	0.212	0.208	-0.121	-0.437	2.207	0.425	0.827	1.833	1.863	0.095	-0.086	-0.054
0.028	40.735	-0.007	0.210	0.225	-0.133	-0.314	2.061	0.374	0.837	1.838	1.857	0.099	-0.089	-0.053
0.028	40.726	-0.009	0.206	0.242	-0.141	-0.230	1.971	0.312	0.882	1.827	1.858	0.100	-0.091	-0.051
0.029	40.726	-0.009	0.205	0.258	-0.147	-0.181	2.042	0.317	0.872	1.832	1.859	0.100	-0.093	-0.051
0.029	40.729	-0.008	0.204	0.270	-0.148	-0.150	2.214	0.365	0.860	1.835	1.859	0.107	-0.093	-0.050
0.029	40.723	-0.007	0.204	0.281	-0.144	-0.146	2.403	0.441	0.871	1.823	1.861	0.114	-0.094	-0.049
0.029	40.720	-0.004	0.206	0.289	-0.137	-0.102	2.529	0.494	0.909	1.828	1.860	0.114	-0.095	-0.049
0.029	40.714	-0.005	0.209	0.295	-0.125	-0.036	2.499	0.526	0.950	1.831	1.863	0.119	-0.093	-0.052
0.030	40.732	-0.011	0.212	0.299	-0.112	0.008	2.350	0.457	0.985	1.837	1.867	0.123	-0.092	-0.052
0.030	40.695	-0.015	0.217	0.299	-0.096	0.020	2.169	0.347	0.969	1.829	1.868	0.127	-0.094	-0.055
0.030	40.714	-0.024	0.221	0.297	-0.077	-0.053	2.054	0.239	0.909	1.831	1.869	0.131	-0.091	-0.059
0.030	40.707	-0.027	0.227	0.288	-0.058	-0.172	2.072	0.135	0.865	1.843	1.870	0.135	-0.092	-0.061
0.030	40.704	-0.025	0.232	0.281	-0.040	-0.235	2.159	0.179	0.826	1.836	1.865	0.139	-0.091	-0.066
0.031	40.704	-0.024	0.236	0.268	-0.023	-0.265	2.293	0.240	0.801	1.837	1.865	0.144	-0.089	-0.071
0.031	40.723	-0.020	0.241	0.252	-0.006	-0.178	2.390	0.325	0.814	1.839	1.862	0.147	-0.083	-0.076
0.031	40.698	-0.015	0.245	0.232	0.007	-0.052	2.417	0.331	0.800	1.841	1.861	0.150	-0.080	-0.080
0.031	40.707	-0.015	0.250	0.210	0.019	0.062	2.403	0.292	0.773	1.839	1.860	0.153	-0.079	-0.088
0.031	40.720	-0.014	0.254	0.183	0.024	0.095	2.353	0.221	0.723	1.841	1.863	0.155	-0.073	-0.090
0.032	40.701	-0.019	0.257	0.157	0.032	0.044	2.363	0.117	0.760	1.839	1.865	0.158	-0.071	-0.097
0.032	40.723	-0.023	0.261	0.129	0.034	-0.048	2.415	0.069	0.757	1.828	1.869	0.161	-0.070	-0.101
0.032	40.701	-0.027	0.264	0.100	0.030	-0.122	2.481	0.117	0.762	1.836	1.860	0.161	-0.064	-0.104
0.032	40.680	-0.025	0.265	0.071	0.023	-0.113	2.543	0.246	0.776	1.836	1.869	0.163	-0.057	-0.107
0.032	40.717	-0.019	0.268	0.045	0.012	-0.012	2.592	0.348	0.768	1.834	1.866	0.164	-0.058	-0.113
0.033	40.707	-0.012	0.269	0.018	-0.006	0.109	2.569	0.365	0.740	1.833	1.867	0.164	-0.055	-0.115
0.033	40.707	-0.002	0.270	-0.005	-0.027	0.225	2.525	0.314	0.707	1.841	1.871	0.162	-0.052	-0.117
0.033	40.707	0.004	0.267	-0.026	-0.053	0.266	2.475	0.177	0.684	1.841	1.871	0.164	-0.049	-0.122
0.033	40.723	0.008	0.267	-0.046	-0.083	0.199	2.465	0.003	0.741	1.839	1.876	0.164	-0.048	-0.125
0.033	40.704	0.006	0.267	-0.061	-0.111	0.090	2.523	-0.086	0.828	1.839	1.866	0.162	-0.047	-0.125
0.034	40.689	0.000	0.269	-0.073	-0.142	0.025	2.625	-0.095	0.859	1.840	1.867	0.160	-0.045	-0.124
0.034	40.707	-0.004	0.268	-0.083	-0.170	0.015	2.704	0.003	0.853	1.840	1.871	0.162	-0.045	-0.126
0.034	40.710	-0.006	0.270	-0.091	-0.198	0.052	2.713	0.156	0.819	1.846	1.863	0.159	-0.044	-0.126
0.034	40.704	-0.007	0.270	-0.097	-0.223	0.137	2.635	0.256	0.736	1.841	1.864	0.160	-0.044	-0.126
0.034	40.720	-0.005	0.271	-0.100	-0.244	0.187	2.495	0.295	0.646	1.845	1.869	0.156	-0.044	-0.124
0.035	40.704	-0.001	0.273	-0.103	-0.260	0.196	2.387	0.250	0.610	1.842	1.865	0.154	-0.043	-0.126
0.035	40.714	0.003	0.273	-0.103	-0.275	0.137	2.341	0.153	0.647	1.841	1.872	0.152	-0.045	-0.122
0.035	40.707	0.005	0.273	-0.104	-0.278	0.052	2.390	0.078	0.716	1.831	1.868	0.151	-0.046	-0.119
0.035	40.714	0.004	0.274	-0.101	-0.275	0.008	2.511	0.057	0.761	1.840	1.871	0.146	-0.044	-0.118
0.035	40.714	-0.001	0.276	-0.099	-0.269	0.022	2.669	0.134	0.777	1.842	1.874	0.140	-0.046	-0.116
0.036	40.714	-0.007	0.276	-0.102	-0.253	0.081	2.737	0.215	0.714	1.834	1.880	0.137	-0.045	-0.113
0.036	40.710	-0.014	0.280	-0.101	-0.232	0.119	2.757	0.241	0.626	1.836	1.873	0.133	-0.046	-0.111
0.036	40.720	-0.016	0.283	-0.105	-0.204	0.153	2.696	0.195	0.506	1.839	1.881	0.126	-0.046	-0.108
0.036	40.723	-0.021	0.283	-0.107	-0.172	0.163	2.623	0.093	0.450	1.850	1.872	0.123	-0.049	-0.104
0.036	40.720	-0.020	0.287	-0.110	-0.136	0.104	2.604	-0.058	0.437	1.839	1.879	0.118	-0.046	-0.103
0.037	40.701	-0.017	0.289	-0.113	-0.098	0.053	2.628	-0.154	0.459	1.847	1.883	0.109	-0.047	-0.097
0.037	40.735	-0.015	0.289	-0.117	-0.062	0.076	2.642	-0.163	0.499	1.849	1.880	0.107	-0.046	-0.097
0.037	40.723	-0.010	0.286	-0.121	-0.029	0.148	2.706	-0.122	0.559	1.843	1.875	0.103	-0.046	-0.094
0.037	40.720	-0.011	0.286	-0.125	-0.001	0.271	2.664	-0.013	0.577	1.852	1.868	0.094	-0.046	-0.089
0.037	40.744	-0.013	0.284	-0.131	0.024	0.372	2.639	0.056	0.566	1.845	1.876	0.089	-0.046	-0.089
0.038	40.747	-0.014	0.283	-0.136	0.038	0.409	2.577	0.072	0.557	1.841	1.872	0.084	-0.045	-0.084
0.038	40.732	-0.019	0.281	-0.139	0.044	0.400	2.586	0.051	0.506	1.840	1.863	0.076	-0.044	-0.082
0.038	40.738	-0.020	0.280	-0.142	0.046	0.332	2.616	-0.016	0.516	1.841	1.865	0.069	-0.043	-0.081
0.038	40.744	-0.020	0.278	-0.147	0.034	0.256	2.638	-0.059	0.534	1.847	1.869	0.063	-0.042	-0.077
0.038	40.747	-0.017	0.276	-0.150	0.016	0.190	2.645	-0.071	0.598	1.848	1.875	0.058	-0.043	-0.079
0.039	40.747	-0.015	0.274	-0.150	-0.008	0.201	2.568	-0.049	0.647	1.838	1.873	0.050	-0.043	-0.079
0.039	40.762	-0.013	0.274	-0.150	-0.038	0.279	2.466	-0.025	0.639	1.839	1.872	0.048	-0.042	-0.079
0.039	40.756	-0.011	0.271	-0.147	-0.072	0.332	2.351	-0.036	0.632	1.840	1.877	0.042	-0.042	-0.076
0.039	40.796	-0.011	0.269	-0.144	-0.110	0.416	2.274	-0.045	0.591	1.844	1.880	0.036	-0.041	-0.081
0.039	40.771	-0.009	0.265	-0.140	-0.148	0.482	2.281	-0.082	0.548	1.847	1.879	0.030	-0.042	-0.080
0.040	40.756	-0.007	0.258	-0.134	-0.189	0.534	2.317	-0.117	0.563	1.842	1.875	0.026	-0.042	-0.079
0.040	40.787	-0.007	0.253	-0.131	-0.224	0.586	2.389	-0.099	0.629	1.848	1.871	0.024	-0.042	-0.083
0.040	40.765	-0.001	0.248	-0.129	-0.256	0.613	2.436	-0.077	0.686	1.854	1.876	0.017	-0.044	-0.084
0.040	40.768	0.003	0.242	-0.125	-0.280	0.616	2.456	-0.023	0.759	1.849	1.876	0.014	-0.046	-0.088
0.040	40.790	0.007	0.238	-0.124	-0.297	0.634	2.421	0.044	0.790	1.849	1.877	0.009	-0.046	-0.091
0.041	40.784	0.010	0.237	-0.122	-0.304	0.654	2.384	0.073	0.797	1.844	1.876	0.006	-0.046	-0.095
0.041	40.775	0.010	0.233	-0.120	-0.302	0.666	2.335	0.033	0.738	1.844	1.875	0.001	-0.046	-0.098
0.041	40.778	0.010	0.231	-0.117	-0.292	0.696	2.259	-0.043	0.668	1.837	1.881	-0.003	-0.048	-0.100
0.041	40.805	0.010	0.225	-0.114	-0.274	0.735	2.163	-0.086	0.574	1.833	1.875	-0.003	-0.051	-0.105
0.041	40.781	0.014	0.224	-0.112	-0.247	0.785	2.120	-0.156	0.538	1.839	1.871	-0.009	-0.052	-0.106
0.042	40.787	0.020	0.221	-0.110	-0.212	0.857	2.073	-0.247	0.553	1.840	1.870	-0.013	-0.053	-0.114
0.042	40.793	0.024	0.221	-0.111	-0.174	0.982	2.069	-0.313	0.589	1.847	1.874	-0.017	-0.055	-0.116
0.042	40.784	0.030	0.220	-0.114	-0.129	1.148	2.084	-0.372	0.566	1.845	1.883	-0.019	-0.058	-0.119
0.042	40.790	0.038	0.217	-0.120	-0.080	1.319	2.087	-0.347	0.540	1.852	1.879	-0.023	-0.060	-0.126
0.042	40.808	0.044	0.215	-0.123	-0.030	1.375	2.068	-0.271	0.478	1.850	1.869	-0.027	-0.061	-0.129
0.043	40.805	0.046	0.213	-0.131	0.021	1.382	2.037	-0.157	0.434	1.858	1.874	-0.032	-0.061	-0.132
0.043	40.802	0.048	0.212	-0.139	0.072	1.326	1.992	-0.066	0.426	1.841	1.882	-0.033	-0.065	-0.134
0.043	40.799	0.052	0.212	-0.146	0.119	1.272	1.883	-0.037	0.481	1.836	1.875	-0.037	-0.067	-0.137
0.043	40.802	0.055	0.209	-0.155	0.159	1.217	1.820	-0.043	0.580	1.841	1.874	-0.041	-0.067	-0.141
0.043	40.799	0.061	0.207	-0.162	0.200	1.178	1.783	-0.050	0.688	1.836	1.881	-0.045	-0.071	-0.144
0.044	40.799	0.065	0.205	-0.172	0.229	1.147	1.758	-0.060	0.724	1.835	1.885	-0.048	-0.073	-0.145
0.044	40.814	0.070	0.201	-0.181	0.251	1.165	1.726	-0.045	0.732	1.842	1.879	-0.053	-0.072	-0.147
0.044	40.790	0.076	0.197	-0.188	0.259	1.215	1.663	0.008	0.663	1.839	1.877	-0.058	-0.073	-0.148
0.044	40.790	0.080	0.191	-0.193	0.262	1.256	1.574	0.045	0.593	1.832	1.881	-0.059	-0.072	-0.148
0.044	40.793	0.086	0.185	-0.202	0.254	1.290	1.486	0.082	0.556	1.831	1.876	-0.063	-0.077	-0.146
0.045	40.771	0.088	0.183	-0.208	0.239	1.261	1.445	0.084	0.557	1.832	1.881	-0.068	-0.078	-0.145
0.045	40.784	0.089	0.176	-0.212	0.217	1.183	1.445	0.043	0.575	1.838	1.880	-0.072	-0.078	-0.142
0.045	40.790	0.090	0.173	-0.215	0.188	1.090	1.458	-0.025	0.609	1.837	1.877	-0.076	-0.079	-0.140
0.045	40.768	0.090	0.168	-0.216	0.155	1.019	1.464	-0.050	0.587	1.840	1.874	-0.080	-0.079	-0.136
0.045	40.787	0.087	0.167	-0.219	0.117	0.982	1.464	-0.084	0.518	1.834	1.880	-0.078	-0.080	-0.131
0.046	40.762	0.090	0.164	-0.219	0.080	0.972	1.407	-0.093	0.480	1.838	1.878	-0.083	-0.080	-0.125
0.046	40.759	0.090	0.161	-0.218	0.044	0.962	1.329	-0.077	0.454	1.843	1.874	-0.086	-0.079	-0.118
0.046	40.756	0.089	0.160	-0.215	0.006	0.948	1.229	-0.053	0.380	1.840	1.877	-0.088	-0.077	-0.114
0.046	40.765	0.094	0.159	-0.212	-0.027	0.983	1.106	-0.044	0.378	1.852	1.882	-0.091	-0.077	-0.104
0.046	40.781	0.091	0.151	-0.211	-0.056	0.996	1.023	-0.072	0.379	1.844	1.878	-0.091	-0.071	-0.100
0.047	40.768	0.089	0.155	-0.208	-0.081	0.999	1.031	-0.110	0.447	1.835	1.885	-0.093	-0.072	-0.096
0.047	40.750	0.087	0.150	-0.205	-0.099	0.973	1.033	-0.096	0.483	1.839	1.878	-0.091	-0.071	-0.078
0.047	40.768	0.082	0.153	-0.202	-0.113	0.954	1.063	-0.023	0.486	1.840	1.874	-0.093	-0.068	-0.073
0.047	40.747	0.078	0.152	-0.201	-0.119	0.921	1.059	0.072	0.506	1.842	1.873	-0.095	-0.061	-0.060
0.047	40.768	0.073	0.151	-0.197	-0.124	0.864	1.046	0.195	0.498	1.837	1.888	-0.094	-0.060	-0.053
0.048	40.750	0.071	0.149	-0.195	-0.121	0.819	1.045	0.301	0.485	1.837	1.870	-0.093	-0.058	-0.042
0.048	40.759	0.071	0.148	-0.195	-0.115	0.783	1.047	0.339	0.475	1.838	1.874	-0.094	-0.051	-0.033
0.048	40.756	0.072	0.147	-0.198	-0.111	0.774	1.066	0.330	0.492	1.842	1.879	-0.093	-0.050	-0.024
0.048	40.759	0.072	0.145	-0.201	-0.105	0.802	1.063	0.307	0.538	1.841	1.876	-0.092	-0.048	-0.012
0.048	40.753	0.072	0.145	-0.207	-0.100	0.852	1.028	0.284	0.561	1.837	1.876	-0.090	-0.044	-0.002
0.049	40.756	0.069	0.144	-0.217	-0.095	0.901	0.966	0.277	0.561	1.842	1.880	-0.090	-0.036	0.008
0.049	40.750	0.063	0.143	-0.229	-0.090	0.892	0.898	0.343	0.513	1.846	1.880	-0.090	-0.033	0.017
0.049	40.741	0.058	0.142	-0.242	-0.087	0.857	0.847	0.391	0.445	1.841	1.879	-0.089	-0.030	0.027
0.049	40.750	0.054	0.140	-0.258	-0.085	0.814	0.804	0.365	0.372	1.848	1.879	-0.089	-0.027	0.036
0.049	40.756	0.051	0.137	-0.273	-0.085	0.784	0.788	0.337	0.368	1.830	1.887	-0.087	-0.022	0.045
0.050	40.750	0.051	0.132	-0.289	-0.084	0.792	0.800	0.286	0.400	1.840	1.882	-0.087	-0.019	0.052
0.050	40.747	0.053	0.127	-0.309	-0.084	0.786	0.799	0.239	0.453	1.841	1.884	-0.085	-0.015	0.061
0.050	40.768	0.059	0.122	-0.325	-0.086	0.824	0.781	0.233	0.513	1.841	1.882	-0.083	-0.011	0.070
0.050	40.759	0.061	0.118	-0.340	-0.086	0.850	0.766	0.280	0.519	1.837	1.876	-0.082	-0.006	0.074
0.050	40.741	0.062	0.114	-0.357	-0.086	0.907	0.713	0.306	0.499	1.841	1.878	-0.081	0.000	0.078
0.051	40.735	0.062	0.109	-0.371	-0.087	0.929	0.627	0.331	0.482	1.844	1.878	-0.077	0.003	0.086
0.051	40.744	0.060	0.107	-0.386	-0.085	0.960	0.533	0.339	0.502	1.841	1.875	-0.075	0.009	0.090
0.051	40.735	0.055	0.108	-0.399	-0.080	0.969	0.505	0.362	0.540	1.827	1.873	-0.072	0.013	0.093
0.051	40.744	0.055	0.107	-0.411	-0.074	1.030	0.499	0.338	0.609	1.834	1.875	-0.070	0.016	0.098
0.051	40.768	0.053	0.108	-0.421	-0.069	1.080	0.512	0.351	0.632	1.834	1.870	-0.067	0.020	0.102
0.052	40.753	0.056	0.108	-0.429	-0.060	1.132	0.488	0.416	0.656	1.833	1.873	-0.063	0.026	0.104
0.052	40.747	0.061	0.110	-0.433	-0.051	1.140	0.452	0.469	0.605	1.827	1.873	-0.059	0.031	0.107
0.052	40.729	0.064	0.112	-0.436	-0.041	1.088	0.391	0.567	0.547	1.845	1.877	-0.057	0.033	0.107
0.052	40.744	0.069	0.115	-0.437	-0.030	1.017	0.299	0.651	0.483	1.841	1.871	-0.053	0.038	0.109
0.052	40.750	0.070	0.118	-0.433	-0.019	0.948	0.223	0.665	0.421	1.839	1.875	-0.049	0.044	0.108
0.053	40.747	0.071	0.119	-0.430	-0.009	0.917	0.179	0.695	0.395	1.809	1.873	-0.048	0.045	0.108
0.053	40.738	0.065	0.120	-0.421	0.003	0.906	0.143	0.702	0.391	1.840	1.873	-0.044	0.046	0.108
0.053	40.759	0.065	0.119	-0.416	0.014	0.934	0.163	0.720	0.434	1.846	1.867	-0.044	0.048	0.106
0.053	40.744	0.064	0.119	-0.407	0.024	0.978	0.163	0.765	0.421	1.839	1.877	-0.039	0.050	0.106
0.053	40.747	0.064	0.114	-0.399	0.033	0.995	0.109	0.785	0.457	1.848	1.880	-0.033	0.050	0.105
0.054	40.738	0.068	0.114	-0.388	0.043	0.993	0.051	0.788	0.512	1.836	1.878	-0.033	0.050	0.102
0.054	40.747	0.073	0.108	-0.378	0.053	0.956	-0.038	0.708	0.575	1.834	1.872	-0.032	0.049	0.100
0.054	40.732	0.075	0.104	-0.368	0.061	0.916	-0.076	0.617	0.585	1.833	1.875	-0.028	0.046	0.098
0.054	40.738	0.077	0.100	-0.359	0.069	0.880	-0.128	0.573	0.543	1.834	1.869	-0.026	0.043	0.097
0.054	40.732	0.078	0.095	-0.353	0.076	0.876	-0.178	0.573	0.474	1.840	1.866	-0.024	0.040	0.090
0.055	40.744	0.077	0.090	-0.347	0.081	0.895	-0.246	0.632	0.412	1.836	1.872	-0.022	0.037	0.087
0.055	40.707	0.074	0.089	-0.341	0.086	0.978	-0.341	0.692	0.351	1.836	1.878	-0.019	0.033	0.084
0.055	40.744	0.072	0.085	-0.337	0.091	1.017	-0.454	0.706	0.348	1.834	1.866	-0.017	0.030	0.080
0.055	40.704	0.070	0.084	-0.334	0.091	1.051	-0.563	0.699	0.407	1.833	1.862	-0.015	0.026	0.077
0.055	40.720	0.068	0.084	-0.331	0.092	1.058	-0.616	0.659	0.414	1.835	1.861	-0.013	0.020	0.074
0.056	40.714	0.070	0.085	-0.324	0.086	1.068	-0.611	0.705	0.427	1.839	1.859	-0.011	0.013	0.068
0.056	40.710	0.074	0.084	-0.320	0.076	1.080	-0.629	0.749	0.415	1.836	1.859	-0.012	0.009	0.068
0.056	40.707	0.072	0.085	-0.315	0.072	1.068	-0.670	0.843	0.446	1.834	1.861	-0.008	0.005	0.065
0.056	40.698	0.073	0.087	-0.307	0.060	1.019	-0.725	0.943	0.462	1.832	1.868	-0.005	-0.002	0.062
0.056	40.698	0.076	0.088	-0.301	0.045	0.983	-0.846	0.949	0.543	1.835	1.861	-0.005	-0.009	0.064
0.057	40.701	0.070	0.092	-0.289	0.034	0.912	-0.947	0.928	0.607	1.830	1.860	-0.004	-0.010	0.059
0.057	40.707	0.066	0.102	-0.275	0.021	0.873	-1.026	0.900	0.686	1.835	1.856	-0.002	-0.017	0.058
0.057	40.692	0.060	0.106	-0.266	0.007	0.795	-1.104	0.863	0.725	1.828	1.855	0.002	-0.020	0.058
0.057	40.692	0.058	0.116	-0.251	-0.003	0.779	-1.088	0.888	0.711	1.819	1.860	0.001	-0.023	0.059
0.057	40.698	0.056	0.120	-0.235	-0.012	0.779	-1.075	0.930	0.702	1.829	1.864	0.005	-0.024	0.059
0.058	40.677	0.052	0.128	-0.223	-0.020	0.778	-1.053	0.951	0.751	1.821	1.860	0.009	-0.024	0.058
0.058	40.674	0.050	0.133	-0.207	-0.027	0.787	-1.075	0.912	0.802	1.827	1.863	0.012	-0.024	0.066
0.058	40.668	0.047	0.135	-0.188	-0.031	0.781	-1.113	0.892	0.843	1.828	1.857	0.016	-0.022	0.071
0.058	40.692	0.047	0.136	-0.170	-0.032	0.765	-1.172	0.936	0.880	1.828	1.855	0.018	-0.020	0.073
0.058	40.671	0.045	0.132	-0.149	-0.033	0.707	-1.227	1.006	0.873	1.831	1.857	0.023	-0.015	0.075
0.059	40.680	0.044	0.128	-0.129	-0.032	0.654	-1.268	1.048	0.845	1.831	1.849	0.026	-0.013	0.082
0.059	40.714	0.043	0.124	-0.111	-0.029	0.629	-1.285	1.007	0.838	1.827	1.858	0.030	-0.004	0.087
0.059	40.668	0.043	0.120	-0.094	-0.025	0.645	-1.288	0.919	0.896	1.821	1.855	0.034	-0.001	0.089
0.059	40.671	0.043	0.116	-0.078	-0.021	0.703	-1.308	0.766	0.987	1.820	1.846	0.039	0.002	0.095
0.059	40.665	0.042	0.112	-0.064	-0.012	0.744	-1.355	0.651	1.091	1.825	1.852	0.043	0.007	0.104
0.060	40.686	0.042	0.110	-0.051	-0.000	0.773	-1.395	0.615	1.160	1.813	1.848	0.050	0.013	0.103
0.060	40.680	0.040	0.109	-0.041	0.008	0.774	-1.426	0.686	1.145	1.821	1.848	0.055	0.019	0.106
0.060	40.704	0.038	0.108	-0.029	0.017	0.738	-1.442	0.843	1.128	1.829	1.852	0.063	0.021	0.109
0.060	40.695	0.038	0.107	-0.021	0.023	0.710	-1.418	0.956	1.065	1.820	1.851	0.068	0.027	0.113
0.060	40.671	0.038	0.105	-0.012	0.031	0.642	-1.418	1.005	1.082	1.827	1.852	0.071	0.033	0.117
0.061	40.680	0.037	0.104	-0.001	0.035	0.589	-1.448	0.971	1.141	1.821	1.857	0.080	0.033	0.118
0.061	40.671	0.038	0.103	0.008	0.035	0.570	-1.505	0.897	1.237	1.827	1.849	0.084	0.035	0.121
0.061	40.677	0.040	0.099	0.016	0.031	0.567	-1.583	0.819	1.273	1.822	1.843	0.087	0.039	0.125
0.061	40.677	0.042	0.101	0.027	0.030	0.561	-1.636	0.823	1.250	1.819	1.848	0.094	0.040	0.125
0.061	40.695	0.044	0.098	0.036	0.023	0.543	-1.653	0.917	1.222	1.818	1.848	0.101	0.041	0.126
0.062	40.674	0.045	0.102	0.042	0.019	0.496	-1.654	1.023	1.180	1.813	1.836	0.103	0.041	0.128
0.062	40.698	0.040	0.102	0.049	0.016	0.411	-1.613	1.091	1.152	1.823	1.840	0.108	0.044	0.125
0.062	40.695	0.039	0.107	0.051	0.012	0.314	-1.597	1.076	1.213	1.820	1.846	0.113	0.044	0.122
0.062	40.692	0.034	0.115	0.050	0.011	0.223	-1.572	1.010	1.301	1.815	1.840	0.118	0.045	0.124
0.062	40.695	0.031	0.122	0.048	0.012	0.174	-1.619	0.844	1.438	1.800	1.840	0.121	0.045	0.122
0.063	40.704	0.027	0.129	0.042	0.016	0.169	-1.641	0.727	1.468	1.814	1.842	0.127	0.046	0.122
0.063	40.680	0.032	0.133	0.036	0.021	0.216	-1.668	0.683	1.432	1.814	1.839	0.130	0.048	0.115
0.063	40.695	0.032	0.138	0.027	0.030	0.255	-1.673	0.788	1.370	1.819	1.836	0.134	0.048	0.111
0.063	40.701	0.035	0.141	0.016	0.039	0.278	-1.654	0.969	1.314	1.815	1.838	0.140	0.049	0.110
0.063	40.683	0.037	0.144	0.004	0.054	0.211	-1.645	1.130	1.330	1.815	1.840	0.142	0.051	0.104
0.064	40.726	0.037	0.146	-0.008	0.071	0.100	-1.666	1.192	1.348	1.813	1.836	0.146	0.055	0.098
0.064	40.692	0.036	0.147	-0.022	0.093	0.024	-1.724	1.156	1.378	1.820	1.838	0.150	0.051	0.096
0.064	40.707	0.031	0.147	-0.033	0.113	0.008	-1.794	1.030	1.393	1.819	1.836	0.157	0.057	0.093
0.064	40.692	0.027	0.149	-0.046	0.137	0.076	-1.838	0.923	1.394	1.815	1.835	0.158	0.058	0.083
0.064	40.704	0.024	0.149	-0.056	0.163	0.175	-1.857	0.883	1.357	1.815	1.835	0.161	0.062	0.080
0.065	40.714	0.022	0.150	-0.061	0.189	0.221	-1.865	0.951	1.331	1.812	1.832	0.163	0.063	0.073
0.065	40.726	0.023	0.149	-0.066	0.212	0.169	-1.845	1.060	1.321	1.809	1.838	0.170	0.067	0.068
0.065	40.698	0.027	0.149	-0.065	0.233	0.056	-1.846	1.200	1.338	1.808	1.835	0.173	0.069	0.063
0.065	40.717	0.032	0.148	-0.060	0.249	-0.073	-1.840	1.231	1.379	1.815	1.837	0.174	0.072	0.058
0.065	40.707	0.037	0.148	-0.055	0.262	-0.131	-1.879	1.164	1.431	1.810	1.832	0.175	0.074	0.052
0.066	40.726	0.039	0.144	-0.047	0.268	-0.084	-1.931	1.065	1.513	1.804	1.834	0.180	0.077	0.048
0.066	40.732	0.042	0.143	-0.040	0.267	0.024	-1.999	0.981	1.553	1.809	1.830	0.183	0.077	0.043
0.066	40.714	0.044	0.139	-0.032	0.265	0.141	-2.051	0.991	1.585	1.804	1.830	0.182	0.079	0.040
0.066	40.744	0.038	0.136	-0.026	0.258	0.155	-2.056	1.070	1.634	1.801	1.831	0.183	0.081	0.034
0.066	40.720	0.037	0.136	-0.020	0.244	0.143	-2.007	1.183	1.673	1.811	1.832	0.183	0.076	0.033
0.067	40.710	0.041	0.129	-0.014	0.226	0.081	-2.013	1.245	1.726	1.808	1.828	0.183	0.081	0.030
0.067	40.707	0.044	0.128	-0.010	0.206	-0.036	-1.989	1.208	1.737	1.808	1.825	0.183	0.083	0.025
0.067	40.717	0.047	0.127	-0.008	0.189	-0.060	-1.976	1.084	1.744	1.816	1.831	0.182	0.081	0.025
0.067	40.750	0.050	0.125	-0.009	0.167	-0.039	-2.019	0.951	1.757	1.809	1.826	0.182	0.078	0.023
0.067	40.704	0.052	0.126	-0.011	0.143	0.040	-2.039	0.859	1.760	1.818	1.822	0.181	0.077	0.021
0.068	40.720	0.055	0.126	-0.017	0.117	0.148	-2.062	0.805	1.791	1.810	1.829	0.178	0.079	0.022
0.068	40.720	0.054	0.129	-0.021	0.097	0.228	-2.082	0.862	1.878	1.812	1.827	0.175	0.075	0.022
0.068	40.753	0.050	0.129	-0.031	0.076	0.257	-2.125	0.932	1.952	1.804	1.827	0.176	0.072	0.019
0.068	40.723	0.046	0.131	-0.043	0.055	0.259	-2.183	1.030	1.991	1.810	1.823	0.171	0.074	0.022
0.068	40.717	0.045	0.135	-0.057	0.038	0.260	-2.256	1.087	1.986	1.814	1.828	0.168	0.072	0.021
0.069	40.738	0.043	0.139	-0.071	0.027	0.286	-2.313	1.071	1.966	1.807	1.827	0.168	0.072	0.021
0.069	40.732	0.046	0.144	-0.092	0.017	0.355	-2.323	1.062	1.881	1.816	1.827	0.167	0.068	0.021
0.069	40.723	0.046	0.147	-0.109	0.014	0.450	-2.289	0.991	1.803	1.813	1.825	0.163	0.067	0.022
0.069	40.723	0.046	0.151	-0.126	0.013	0.509	-2.235	0.963	1.801	1.810	1.822	0.160	0.069	0.021
0.069	40.738	0.048	0.157	-0.144	0.018	0.545	-2.199	0.953	1.843	1.816	1.817	0.157	0.069	0.024
0.070	40.732	0.049	0.159	-0.160	0.025	0.512	-2.217	1.002	1.879	1.816	1.822	0.156	0.069	0.023
0.070	40.750	0.048	0.165	-0.175	0.037	0.460	-2.245	1.030	1.879	1.816	1.818	0.154	0.070	0.025
0.070	40.729	0.048	0.171	-0.188	0.049	0.419	-2.308	1.094	1.845	1.815	1.829	0.151	0.072	0.027
0.070	40.744	0.048	0.175	-0.200	0.062	0.391	-2.359	1.128	1.828	1.812	1.824	0.148	0.072	0.028
0.070	40.744	0.048	0.179	-0.209	0.076	0.397	-2.345	1.099	1.819	1.813	1.821	0.145	0.074	0.029
0.071	40.729	0.051	0.179	-0.217	0.091	0.446	-2.286	1.077	1.903	1.812	1.820	0.140	0.075	0.032
0.071	40.735	0.052	0.181	-0.224	0.104	0.468	-2.203	1.079	1.998	1.812	1.820	0.137	0.075	0.031
0.071	40.741	0.052	0.179	-0.230	0.120	0.489	-2.134	1.080	2.148	1.820	1.826	0.134	0.078	0.032
0.071	40.726	0.051	0.178	-0.232	0.132	0.460	-2.065	1.141	2.211	1.810	1.825	0.132	0.078	0.036
0.071	40.732	0.048	0.175	-0.233	0.146	0.440	-2.033	1.205	2.177	1.801	1.824	0.128	0.078	0.040
0.072	40.738	0.043	0.170	-0.231	0.160	0.391	-2.033	1.269	2.124	1.811	1.820	0.123	0.082	0.039
0.072	40.741	0.037	0.166	-0.228	0.175	0.408	-2.060	1.295	2.024	1.812	1.819	0.119	0.080	0.043
0.072	40.729	0.033	0.160	-0.220	0.187	0.434	-2.131	1.238	1.941	1.820	1.815	0.115	0.080	0.052
0.072	40.732	0.031	0.154	-0.213	0.200	0.422	-2.174	1.149	1.938	1.818	1.819	0.114	0.079	0.053
0.072	40.732	0.033	0.147	-0.204	0.216	0.400	-2.175	1.060	1.989	1.810	1.823	0.107	0.078	0.057
0.073	40.720	0.036	0.139	-0.191	0.230	0.329	-2.093	0.990	2.035	1.816	1.821	0.102	0.075	0.062
0.073	40.732	0.041	0.131	-0.181	0.242	0.306	-1.986	1.003	2.073	1.813	1.824	0.101	0.075	0.068
0.073	40.726	0.044	0.125	-0.166	0.255	0.341	-1.872	1.099	2.064	1.814	1.828	0.096	0.071	0.073
0.073	40.744	0.046	0.120	-0.149	0.269	0.413	-1.816	1.184	2.012	1.829	1.824	0.092	0.071	0.078
0.073	40.726	0.043	0.119	-0.132	0.282	0.523	-1.793	1.313	1.974	1.821	1.826	0.089	0.067	0.084
0.074	40.744	0.039	0.112	-0.114	0.296	0.630	-1.801	1.368	1.985	1.815	1.823	0.088	0.063	0.089
0.074	40.744	0.034	0.112	-0.094	0.309	0.696	-1.787	1.321	2.042	1.826	1.824	0.082	0.060	0.094
0.074	40.732	0.030	0.110	-0.074	0.323	0.711	-1.760	1.224	2.089	1.826	1.825	0.078	0.057	0.100
0.074	40.732	0.027	0.110	-0.053	0.335	0.637	-1.669	1.149	2.166	1.826	1.828	0.076	0.052	0.106
0.074	40.735	0.029	0.106	-0.035	0.345	0.561	-1.577	1.124	2.179	1.828	1.816	0.073	0.047	0.111
0.075	40.744	0.033	0.106	-0.018	0.353	0.488	-1.491	1.191	2.166	1.829	1.823	0.069	0.040	0.115
0.075	40.741	0.032	0.105	-0.002	0.360	0.427	-1.416	1.289	2.100	1.824	1.827	0.069	0.038	0.118
0.075	40.790	0.033	0.104	0.009	0.363	0.427	-1.381	1.359	2.059	1.828	1.817	0.066	0.033	0.120
0.075	40.744	0.030	0.104	0.018	0.365	0.497	-1.328	1.401	2.066	1.823	1.817	0.065	0.026	0.121
0.075	40.744	0.026	0.100	0.025	0.365	0.574	-1.251	1.311	2.128	1.830	1.822	0.064	0.022	0.122
0.076	40.735	0.021	0.096	0.029	0.362	0.659	-1.203	1.175	2.250	1.821	1.822	0.060	0.021	0.126
0.076	40.744	0.016	0.092	0.030	0.364	0.727	-1.137	1.068	2.413	1.827	1.812	0.059	0.016	0.126
0.076	40.750	0.013	0.090	0.031	0.362	0.789	-1.082	1.068	2.476	1.835	1.825	0.060	0.009	0.128
0.076	40.741	0.013	0.086	0.030	0.362	0.822	-1.058	1.205	2.452	1.824	1.818	0.056	0.009	0.128
0.076	40.744	0.012	0.085	0.026	0.364	0.800	-1.017	1.392	2.363	1.828	1.822	0.053	0.011	0.127
0.077	40.744	0.020	0.083	0.025	0.362	0.797	-0.950	1.539	2.280	1.828	1.823	0.055	0.004	0.127
0.077	40.747	0.022	0.076	0.018	0.364	0.784	-0.854	1.577	2.268	1.821	1.821	0.055	0.004	0.128
0.077	40.726	0.025	0.074	0.016	0.364	0.787	-0.749	1.505	2.246	1.828	1.818	0.052	0.004	0.126
0.077	40.720	0.021	0.069	0.015	0.364	0.849	-0.651	1.367	2.306	1.828	1.824	0.052	0.004	0.128
0.077	40.726	0.017	0.064	0.012	0.365	0.888	-0.561	1.228	2.416	1.833	1.824	0.052	0.007	0.126
0.078	40.720	0.013	0.058	0.011	0.365	0.980	-0.529	1.193	2.464	1.820	1.816	0.052	0.010	0.127
0.078	40.723	0.006	0.053	0.011	0.365	1.046	-0.551	1.273	2.475	1.837	1.819	0.051	0.013	0.126
0.078	40.714	0.006	0.046	0.010	0.363	1.141	-0.672	1.422	2.459	1.834	1.817	0.052	0.016	0.126
0.078	40.714	0.005	0.039	0.012	0.361	1.196	-0.789	1.560	2.383	1.824	1.813	0.053	0.022	0.128
0.078	40.710	0.008	0.034	0.014	0.357	1.229	-0.923	1.610	2.377	1.829	1.822	0.054	0.028	0.129
0.079	40.710	0.009	0.028	0.019	0.357	1.256	-0.905	1.592	2.386	1.830	1.826	0.054	0.033	0.133
0.079	40.710	0.008	0.020	0.024	0.355	1.236	-0.783	1.498	2.477	1.829	1.815	0.055	0.040	0.131
0.079	40.707	0.003	0.014	0.029	0.353	1.261	-0.607	1.445	2.615	1.828	1.817	0.056	0.047	0.132
0.079	40.701	-0.005	0.007	0.038	0.356	1.262	-0.448	1.438	2.725	1.822	1.816	0.058	0.056	0.137
0.079	40.695	-0.014	0.003	0.046	0.359	1.251	-0.362	1.470	2.772	1.828	1.823	0.059	0.059	0.138
0.080	40.704	-0.024	-0.006	0.053	0.365	1.232	-0.332	1.470	2.730	1.837	1.818	0.059	0.067	0.138
0.080	40.698	-0.031	-0.010	0.060	0.374	1.219	-0.292	1.487	2.637	1.829	1.822	0.059	0.071	0.142
0.080	40.701	-0.035	-0.016	0.066	0.378	1.198	-0.241	1.438	2.489	1.826	1.822	0.063	0.077	0.144
0.080	40.704	-0.034	-0.021	0.073	0.387	1.223	-0.225	1.407	2.445	1.842	1.824	0.063	0.082	0.143
0.080	40.704	-0.034	-0.030	0.077	0.393	1.287	-0.244	1.403	2.424	1.839	1.820	0.064	0.087	0.143
0.081	40.698	-0.032	-0.036	0.082	0.401	1.404	-0.319	1.378	2.506	1.842	1.820	0.062	0.089	0.144
0.081	40.689	-0.035	-0.043	0.081	0.404	1.479	-0.384	1.394	2.580	1.827	1.823	0.067	0.094	0.144
0.081	40.695	-0.038	-0.047	0.081	0.409	1.563	-0.366	1.338	2.617	1.838	1.824	0.067	0.095	0.145
0.081	40.677	-0.044	-0.049	0.079	0.415	1.605	-0.204	1.264	2.643	1.837	1.816	0.069	0.098	0.146
0.081	40.671	-0.050	-0.050	0.074	0.415	1.600	0.039	1.225	2.610	1.837	1.823	0.070	0.100	0.146
0.082	40.695	-0.055	-0.051	0.068	0.415	1.583	0.269	1.188	2.557	1.832	1.823	0.074	0.101	0.145
0.082	40.665	-0.057	-0.049	0.061	0.414	1.548	0.402	1.223	2.471	1.836	1.818	0.073	0.103	0.146
0.082	40.665	-0.056	-0.048	0.052	0.409	1.530	0.376	1.272	2.381	1.832	1.822	0.075	0.104	0.146
0.082	40.649	-0.056	-0.050	0.043	0.401	1.528	0.234	1.331	2.352	1.840	1.819	0.076	0.104	0.147
0.082	40.659	-0.053	-0.048	0.034	0.391	1.559	0.082	1.392	2.385	1.836	1.822	0.078	0.105	0.147
0.083	40.656	-0.052	-0.049	0.026	0.379	1.575	-0.005	1.382	2.456	1.833	1.824	0.081	0.104	0.147
0.083	40.656	-0.053	-0.051	0.017	0.365	1.543	0.033	1.345	2.547	1.842	1.832	0.080	0.104	0.147
0.083	40.649	-0.056	-0.054	0.007	0.352	1.512	0.175	1.307	2.629	1.836	1.826	0.082	0.104	0.150
0.083	40.634	-0.061	-0.056	0.004	0.336	1.477	0.375	1.237	2.594	1.838	1.818	0.083	0.104	0.150
0.083	40.652	-0.065	-0.061	-0.000	0.319	1.438	0.532	1.241	2.525	1.833	1.826	0.086	0.103	0.148
0.084	40.646	-0.068	-0.067	-0.006	0.303	1.448	0.620	1.240	2.452	1.844	1.827	0.084	0.104	0.157
0.084	40.649	-0.069	-0.073	-0.009	0.291	1.479	0.574	1.210	2.416	1.834	1.824	0.089	0.105	0.155
0.084	40.628	-0.065	-0.076	-0.010	0.277	1.539	0.504	1.165	2.396	1.840	1.826	0.092	0.102	0.157
0.084	40.637	-0.063	-0.081	-0.009	0.264	1.585	0.469	1.102	2.477	1.839	1.828	0.092	0.099	0.156
0.084	40.649	-0.061	-0.086	-0.003	0.255	1.581	0.497	1.028	2.558	1.838	1.824	0.096	0.101	0.158
0.085	40.616	-0.060	-0.090	0.004	0.245	1.562	0.605	0.980	2.618	1.837	1.825	0.096	0.098	0.159
0.085	40.640	-0.060	-0.095	0.008	0.239	1.564	0.699	0.980	2.653	1.834	1.818	0.097	0.095	0.161
0.085	40.652	-0.062	-0.097	0.015	0.235	1.592	0.757	1.015	2.614	1.840	1.814	0.098	0.092	0.161
0.085	40.628	-0.065	-0.099	0.023	0.233	1.591	0.763	1.025	2.570	1.841	1.832	0.101	0.088	0.163
0.085	40.640	-0.067	-0.101	0.031	0.230	1.595	0.748	1.026	2.558	1.848	1.831	0.101	0.084	0.164
0.086	40.634	-0.066	-0.103	0.041	0.229	1.593	0.762	0.962	2.586	1.858	1.830	0.102	0.079	0.161
0.086	40.610	-0.067	-0.103	0.050	0.232	1.590	0.768	0.936	2.658	1.839	1.826	0.100	0.076	0.161
0.086	40.652	-0.066	-0.104	0.058	0.235	1.590	0.761	0.978	2.651	1.843	1.824	0.104	0.070	0.159
0.086	40.659	-0.064	-0.103	0.064	0.238	1.603	0.772	1.047	2.619	1.847	1.829	0.105	0.064	0.160
0.086	40.625	-0.064	-0.104	0.069	0.248	1.614	0.773	1.124	2.558	1.836	1.831	0.103	0.061	0.156
0.087	40.640	-0.067	-0.101	0.072	0.255	1.661	0.795	1.188	2.501	1.839	1.826	0.107	0.053	0.154
0.087	40.631	-0.063	-0.100	0.073	0.264	1.732	0.824	1.152	2.472	1.856	1.829	0.102	0.044	0.152
0.087	40.643	-0.062	-0.101	0.072	0.272	1.743	0.848	1.112	2.512	1.844	1.833	0.101	0.043	0.146
0.087	40.616	-0.056	-0.100	0.070	0.279	1.714	0.917	1.075	2.536	1.852	1.834	0.099	0.034	0.145
0.087	40.622	-0.052	-0.102	0.064	0.286	1.640	0.977	1.068	2.524	1.849	1.826	0.098	0.032	0.140
0.088	40.622	-0.047	-0.103	0.055	0.289	1.561	1.034	1.087	2.482	1.860	1.833	0.094	0.025	0.134
0.088	40.625	-0.045	-0.105	0.044	0.290	1.541	1.054	1.080	2.438	1.854	1.827	0.091	0.017	0.133
0.088	40.591	-0.043	-0.106	0.031	0.291	1.580	1.063	1.023	2.435	1.854	1.833	0.088	0.010	0.127
0.088	40.628	-0.044	-0.107	0.012	0.288	1.646	1.039	0.892	2.507	1.860	1.828	0.085	0.007	0.120
0.088	40.604	-0.047	-0.108	-0.009	0.284	1.690	1.019	0.754	2.648	1.857	1.829	0.080	0.001	0.115
0.089	40.616	-0.050	-0.109	-0.030	0.280	1.704	1.037	0.669	2.767	1.852	1.831	0.078	-0.007	0.107
0.089	40.607	-0.051	-0.109	-0.052	0.276	1.710	1.112	0.644	2.849	1.860	1.835	0.074	-0.010	0.096
0.089	40.607	-0.053	-0.108	-0.076	0.270	1.696	1.227	0.739	2.829	1.866	1.835	0.069	-0.013	0.086
0.089	40.616	-0.050	-0.107	-0.098	0.261	1.683	1.344	0.878	2.749	1.865	1.832	0.066	-0.020	0.077
0.089	40.610	-0.051	-0.105	-0.119	0.255	1.677	1.413	0.945	2.676	1.862	1.834	0.064	-0.024	0.066
0.090	40.616	-0.052	-0.100	-0.135	0.246	1.657	1.437	0.896	2.627	1.863	1.838	0.057	-0.027	0.057
0.090	40.598	-0.053	-0.101	-0.151	0.234	1.612	1.443	0.740	2.664	1.871	1.842	0.056	-0.031	0.049
0.090	40.613	-0.057	-0.096	-0.161	0.220	1.598	1.468	0.563	2.707	1.865	1.833	0.054	-0.035	0.036
0.090	40.594	-0.060	-0.094	-0.166	0.205	1.569	1.508	0.423	2.763	1.870	1.839	0.050	-0.037	0.030
0.090	40.604	-0.066	-0.089	-0.171	0.192	1.532	1.564	0.416	2.749	1.869	1.837	0.046	-0.039	0.027
0.091	40.598	-0.072	-0.083	-0.174	0.178	1.545	1.669	0.541	2.680	1.863	1.836	0.043	-0.042	0.021
0.091	40.601	-0.078	-0.077	-0.174	0.171	1.575	1.701	0.739	2.628	1.872	1.838	0.040	-0.043	0.016
0.091	40.613	-0.084	-0.072	-0.171	0.161	1.632	1.680	0.832	2.577	1.868	1.840	0.038	-0.044	0.017
0.091	40.585	-0.088	-0.067	-0.163	0.157	1.693	1.615	0.848	2.619	1.865	1.836	0.034	-0.045	0.015
0.091	40.598	-0.090	-0.064	-0.155	0.155	1.684	1.545	0.722	2.643	1.871	1.841	0.030	-0.044	0.013
0.092	40.616	-0.092	-0.061	-0.141	0.154	1.621	1.525	0.520	2.678	1.872	1.844	0.027	-0.048	0.015
0.092	40.594	-0.095	-0.060	-0.126	0.152	1.511	1.560	0.303	2.670	1.880	1.845	0.026	-0.047	0.021
0.092	40.576	-0.095	-0.059	-0.110	0.151	1.386	1.631	0.191	2.665	1.876	1.843	0.024	-0.048	0.019
0.092	40.585	-0.096	-0.061	-0.093	0.146	1.323	1.705	0.204	2.659	1.877	1.850	0.020	-0.052	0.022
0.092	40.579	-0.099	-0.060	-0.079	0.142	1.338	1.741	0.290	2.655	1.882	1.848	0.016	-0.054	0.025
0.093	40.579	-0.103	-0.060	-0.069	0.139	1.408	1.724	0.349	2.714	1.884	1.857	0.018	-0.054	0.029
0.093	40.585	-0.108	-0.057	-0.059	0.138	1.489	1.680	0.342	2.814	1.881	1.849	0.015	-0.056	0.030
0.093	40.582	-0.112	-0.054	-0.053	0.138	1.524	1.665	0.256	2.890	1.888	1.850	0.015	-0.059	0.029
0.093	40.573	-0.115	-0.054	-0.049	0.143	1.489	1.651	0.172	2.920	1.886	1.850	0.014	-0.061	0.031
0.093	40.567	-0.116	-0.049	-0.048	0.153	1.396	1.663	0.105	2.863	1.888	1.852	0.012	-0.063	0.034
0.094	40.561	-0.114	-0.047	-0.044	0.168	1.293	1.689	0.160	2.720	1.887	1.845	0.015	-0.064	0.032
0.094	40.561	-0.111	-0.046	-0.039	0.181	1.213	1.675	0.338	2.582	1.888	1.845	0.017	-0.065	0.037
0.094	40.552	-0.108	-0.044	-0.033	0.199	1.220	1.637	0.465	2.471	1.893	1.851	0.014	-0.066	0.040
0.094	40.570	-0.105	-0.039	-0.023	0.217	1.263	1.551	0.541	2.434	1.894	1.859	0.013	-0.066	0.042
0.094	40.567	-0.106	-0.033	-0.012	0.233	1.312	1.501	0.456	2.469	1.893	1.853	0.012	-0.064	0.046
0.095	40.573	-0.103	-0.024	0.002	0.248	1.317	1.470	0.269	2.534	1.896	1.856	0.014	-0.065	0.051
0.095	40.570	-0.107	-0.013	0.015	0.258	1.310	1.494	0.083	2.558	1.895	1.856	0.013	-0.064	0.054
0.095	40.564	-0.105	-0.004	0.030	0.265	1.256	1.524	-0.027	2.605	1.889	1.860	0.013	-0.063	0.060
0.095	40.555	-0.105	0.004	0.044	0.268	1.265	1.511	0.050	2.606	1.900	1.868	0.012	-0.062	0.064
0.095	40.552	-0.106	0.010	0.058	0.266	1.264	1.432	0.235	2.602	1.903	1.859	0.011	-0.059	0.069
0.096	40.579	-0.102	0.013	0.071	0.260	1.353	1.298	0.439	2.626	1.901	1.854	0.010	-0.056	0.074
0.096	40.558	-0.097	0.015	0.086	0.247	1.434	1.197	0.559	2.622	1.904	1.863	0.010	-0.056	0.080
0.096	40.552	-0.092	0.017	0.099	0.230	1.441	1.134	0.481	2.639	1.902	1.865	0.005	-0.053	0.081
0.096	40.573	-0.087	0.019	0.113	0.209	1.371	1.174	0.343	2.606	1.903	1.864	0.007	-0.052	0.088
0.096	40.555	-0.082	0.018	0.132	0.180	1.259	1.251	0.174	2.530	1.898	1.863	0.006	-0.052	0.093
0.097	40.552	-0.080	0.015	0.145	0.153	1.156	1.343	0.083	2.535	1.900	1.869	0.003	-0.048	0.094
0.097	40.567	-0.077	0.013	0.163	0.120	1.123	1.382	0.064	2.532	1.907	1.869	0.002	-0.049	0.094
0.097	40.555	-0.070	0.007	0.178	0.090	1.216	1.335	0.043	2.573	1.903	1.866	-0.000	-0.047	0.094
0.097	40.552	-0.067	0.006	0.192	0.060	1.272	1.268	0.005	2.655	1.903	1.868	0.003	-0.046	0.091
0.097	40.570	-0.059	0.006	0.201	0.030	1.368	1.210	-0.047	2.714	1.918	1.867	0.002	-0.044	0.089
0.098	40.549	-0.055	0.004	0.207	0.003	1.355	1.222	-0.099	2.772	1.917	1.868	0.001	-0.043	0.084
0.098	40.567	-0.049	0.006	0.209	-0.019	1.285	1.292	-0.061	2.826	1.914	1.872	0.003	-0.040	0.081
0.098	40.582	-0.043	0.004	0.204	-0.037	1.181	1.421	-0.160	2.691	1.913	1.874	0.006	-0.035	0.073
0.098	40.570	-0.039	0.003	0.197	-0.050	1.095	1.555	-0.463	2.471	1.915	1.873	0.004	-0.032	0.066
0.098	40.561	-0.036	0.006	0.186	-0.058	1.077	1.611	-0.537	2.408	1.916	1.877	0.006	-0.025	0.060
0.099	40.558	-0.034	0.009	0.169	-0.063	1.126	1.564	-0.301	2.466	1.923	1.877	0.010	-0.020	0.053
0.099	40.576	-0.030	0.013	0.149	-0.064	1.233	1.458	0.087	2.432	1.914	1.875	0.009	-0.015	0.049
0.099	40.564	-0.025	0.019	0.130	-0.061	1.342	1.386	0.487	2.314	1.911	1.881	0.013	-0.008	0.039
0.099	40.573	-0.017	0.021	0.108	-0.057	1.372	1.386	0.633	2.239	1.923	1.879	0.013	-0.001	0.037
0.099	40.610	-0.009	0.024	0.084	-0.053	1.358	1.446	0.473	2.327	1.922	1.879	0.013	0.009	0.033
0.100	40.588	-0.000	0.030	0.060	-0.050	1.313	1.526	0.191	2.435	1.925	1.886	0.014	0.017	0.029
0.100	40.561	0.007	0.036	0.038	-0.048	1.281	1.593	-0.254	2.543	1.930	1.885	0.016	0.022	0.025
0.100	40.570	0.013	0.042	0.011	-0.053	1.268	1.601	-0.671	2.660	1.923	1.886	0.016	0.033	0.025
0.100	40.585	0.015	0.049	-0.015	-0.057	1.270	1.586	-0.704	2.715	1.927	1.891	0.016	0.039	0.023
0.100	40.570	0.018	0.055	-0.040	-0.071	1.309	1.519	-0.461	2.489	1.919	1.889	0.017	0.045	0.026
0.101	40.591	0.020	0.061	-0.067	-0.085	1.337	1.450	0.094	2.203	1.925	1.893	0.016	0.052	0.022
0.101	40.594	0.023	0.068	-0.098	-0.105	1.366	1.384	0.598	2.039	1.929	1.894	0.012	0.060	0.024
0.101	40.598	0.026	0.078	-0.128	-0.125	1.362	1.390	0.669	1.989	1.924	1.891	0.011	0.061	0.025
0.101	40.616	0.028	0.083	-0.167	-0.146	1.323	1.407	0.238	2.050	1.928	1.892	0.009	0.064	0.027
0.101	40.604	0.033	0.091	-0.202	-0.165	1.300	1.416	-0.402	2.198	1.935	1.887	0.005	0.066	0.030
0.102	40.591	0.035	0.098	-0.237	-0.184	1.280	1.385	-0.868	2.405	1.932	1.896	0.003	0.067	0.033
0.102	40.637	0.041	0.097	-0.268	-0.202	1.274	1.325	-0.960	2.615	1.927	1.900	0.006	0.068	0.039
0.102	40.610	0.043	0.101	-0.301	-0.220	1.257	1.268	-0.643	2.604	1.927	1.898	-0.002	0.066	0.041
0.102	40.619	0.045	0.097	-0.327	-0.236	1.219	1.302	-0.045	2.401	1.938	1.903	-0.007	0.062	0.049
0.102	40.628	0.048	0.098	-0.350	-0.249	1.179	1.347	0.565	2.069	1.941	1.897	-0.009	0.063	0.051
0.103	40.625	0.050	0.098	-0.366	-0.262	1.178	1.394	0.809	1.750	1.942	1.898	-0.012	0.060	0.056
0.103	40.634	0.054	0.096	-0.382	-0.271	1.195	1.407	0.506	1.597	1.931	1.906	-0.015	0.057	0.061
0.103	40.631	0.060	0.093	-0.389	-0.276	1.211	1.383	-0.159	1.677	1.941	1.912	-0.016	0.056	0.070
0.103	40.616	0.066	0.087	-0.391	-0.280	1.192	1.349	-0.798	1.896	1.940	1.907	-0.018	0.051	0.073
0.103	40.631	0.070	0.084	-0.390	-0.277	1.151	1.292	-1.065	2.060	1.940	1.907	-0.020	0.053	0.077
0.104	40.640	0.075	0.083	-0.382	-0.269	1.074	1.241	-0.763	2.033	1.949	1.904	-0.020	0.046	0.086
0.104	40.628	0.077	0.081	-0.371	-0.256	1.022	1.235	-0.113	1.790	1.939	1.909	-0.019	0.047	0.090
0.104	40.604	0.079	0.081	-0.353	-0.242	1.004	1.263	0.437	1.551	1.937	1.908	-0.022	0.047	0.090
0.104	40.631	0.080	0.079	-0.331	-0.228	1.025	1.297	0.610	1.442	1.939	1.902	-0.019	0.045	0.094
0.104	40.598	0.084	0.078	-0.308	-0.210	1.080	1.318	0.387	1.472	1.932	1.905	-0.017	0.042	0.096
0.105	40.622	0.090	0.077	-0.281	-0.195	1.126	1.317	-0.154	1.685	1.936	1.917	-0.013	0.045	0.098
0.105	40.634	0.096	0.079	-0.253	-0.180	1.151	1.278	-0.584	1.989	1.956	1.919	-0.013	0.045	0.097
0.105	40.628	0.105	0.081	-0.225	-0.167	1.147	1.200	-0.765	2.220	1.942	1.925	-0.008	0.048	0.095
0.105	40.631	0.115	0.084	-0.198	-0.154	1.122	1.101	-0.531	2.246	1.940	1.923	-0.006	0.050	0.093
0.105	40.628	0.122	0.090	-0.176	-0.141	1.094	1.037	-0.001	2.105	1.947	1.923	-0.003	0.052	0.086
0.106	40.634	0.126	0.095	-0.156	-0.127	1.075	0.993	0.471	1.846	1.947	1.922	-0.002	0.051	0.086
0.106	40.634	0.127	0.101	-0.138	-0.114	1.071	1.001	0.607	1.629	1.951	1.922	0.003	0.052	0.079
0.106	40.625	0.127	0.109	-0.125	-0.103	1.086	1.050	0.271	1.513	1.956	1.926	0.003	0.053	0.073
0.106	40.628	0.123	0.119	-0.114	-0.092	1.125	1.076	-0.250	1.519	1.955	1.925	0.005	0.054	0.064
0.106	40.656	0.120	0.129	-0.105	-0.087	1.177	1.102	-0.607	1.615	1.955	1.931	0.009	0.053	0.054
0.107	40.625	0.121	0.137	-0.102	-0.082	1.215	1.054	-0.725	1.757	1.949	1.931	0.005	0.052	0.047
0.107	40.634	0.121	0.144	-0.100	-0.076	1.228	1.006	-0.522	1.734	1.951	1.931	0.010	0.052	0.037
0.107	40.631	0.125	0.151	-0.096	-0.073	1.275	0.989	-0.099	1.544	1.956	1.936	0.009	0.046	0.026
0.107	40.643	0.127	0.153	-0.092	-0.066	1.305	0.950	0.304	1.362	1.962	1.937	0.010	0.044	0.014
0.107	40.637	0.133	0.157	-0.086	-0.062	1.314	0.961	0.405	1.150	1.959	1.940	0.006	0.041	0.008
0.108	40.634	0.133	0.162	-0.078	-0.051	1.301	0.982	0.204	1.039	1.961	1.940	0.005	0.039	-0.003
0.108	40.643	0.135	0.168	-0.071	-0.038	1.325	0.989	-0.125	1.054	1.963	1.942	0.001	0.035	-0.015
0.108	40.634	0.132	0.171	-0.059	-0.020	1.337	0.971	-0.392	1.172	1.963	1.946	-0.004	0.029	-0.023
0.108	40.634	0.131	0.174	-0.047	-0.005	1.387	0.904	-0.417	1.323	1.973	1.942	-0.007	0.026	-0.025
0.108	40.646	0.130	0.177	-0.036	0.011	1.432	0.846	-0.174	1.430	1.964	1.943	-0.010	0.018	-0.035
0.109	40.680	0.129	0.179	-0.024	0.027	1.420	0.807	0.166	1.382	1.971	1.940	-0.017	0.012	-0.043
0.109	40.646	0.131	0.181	-0.008	0.042	1.375	0.823	0.448	1.220	1.977	1.945	-0.023	0.005	-0.047
0.109	40.637	0.136	0.177	0.007	0.056	1.308	0.858	0.498	1.028	1.967	1.945	-0.028	-0.000	-0.049
0.109	40.634	0.142	0.177	0.024	0.070	1.298	0.923	0.316	0.885	1.971	1.954	-0.036	-0.007	-0.051
0.109	40.649	0.149	0.175	0.038	0.083	1.357	0.963	0.050	0.817	1.983	1.953	-0.039	-0.014	-0.053
0.110	40.652	0.154	0.170	0.053	0.098	1.423	0.929	-0.106	0.844	1.980	1.944	-0.045	-0.019	-0.053
0.110	40.634	0.155	0.168	0.068	0.114	1.463	0.870	-0.159	0.895	1.971	1.951	-0.053	-0.027	-0.054
0.110	40.628	0.154	0.162	0.081	0.129	1.495	0.831	-0.002	0.936	1.986	1.955	-0.057	-0.033	-0.053
0.110	40.649	0.150	0.162	0.093	0.147	1.520	0.802	0.254	0.935	1.979	1.955	-0.060	-0.039	-0.052
0.110	40.634	0.149	0.162	0.104	0.163	1.585	0.871	0.469	0.900	1.979	1.958	-0.066	-0.046	-0.050
0.111	40.643	0.150	0.161	0.116	0.179	1.641	0.980	0.500	0.808	1.983	1.958	-0.070	-0.051	-0.046
0.111	40.640	0.152	0.160	0.128	0.192	1.659	1.107	0.311	0.739	1.983	1.957	-0.074	-0.056	-0.042
0.111	40.634	0.160	0.160	0.136	0.203	1.616	1.165	0.063	0.683	1.981	1.964	-0.078	-0.062	-0.038
0.111	40.628	0.163	0.161	0.147	0.214	1.524	1.157	-0.096	0.635	1.979	1.967	-0.080	-0.067	-0.035
0.111	40.643	0.167	0.164	0.158	0.225	1.403	1.082	-0.077	0.630	1.983	1.972	-0.084	-0.073	-0.032
0.112	40.637	0.167	0.168	0.170	0.233	1.320	1.021	0.051	0.589	1.986	1.966	-0.084	-0.078	-0.027
0.112	40.637	0.164	0.173	0.185	0.242	1.293	0.986	0.229	0.535	1.984	1.966	-0.087	-0.081	-0.024
0.112	40.625	0.157	0.179	0.200	0.252	1.349	1.037	0.348	0.472	1.985	1.970	-0.087	-0.083	-0.019
0.112	40.628	0.148	0.186	0.218	0.262	1.474	1.094	0.366	0.444	1.991	1.963	-0.088	-0.086	-0.017
0.112	40.622	0.144	0.193	0.231	0.270	1.597	1.137	0.219	0.409	1.988	1.970	-0.089	-0.088	-0.013
0.113	40.622	0.141	0.203	0.245	0.277	1.660	1.098	-0.081	0.360	1.986	1.974	-0.091	-0.090	-0.006
0.113	40.604	0.142	0.216	0.260	0.283	1.651	1.003	-0.301	0.350	1.994	1.979	-0.091	-0.092	-0.001
0.113	40.607	0.145	0.227	0.272	0.288	1.563	0.885	-0.231	0.346	1.989	1.973	-0.092	-0.093	0.002
0.113	40.619	0.148	0.238	0.286	0.291	1.469	0.804	0.047	0.464	1.990	1.977	-0.092	-0.094	0.004
0.113	40.588	0.151	0.247	0.305	0.292	1.438	0.809	0.344	0.344	1.999	1.976	-0.095	-0.094	0.009
0.114	40.591	0.145	0.256	0.323	0.289	1.479	0.888	0.425	0.194	1.999	1.982	-0.092	-0.092	0.011
0.114	40.607	0.139	0.264	0.337	0.284	1.514	0.946	0.305	0.156	2.001	1.978	-0.093	-0.091	0.013
0.114	40.601	0.135	0.271	0.354	0.276	1.549	0.968	0.068	0.182	1.995	1.979	-0.095	-0.089	0.015
0.114	40.591	0.131	0.279	0.369	0.267	1.527	0.888	-0.178	0.201	2.003	1.981	-0.093	-0.087	0.016
0.114	40.610	0.130	0.282	0.375	0.256	1.448	0.769	-0.330	0.265	2.003	1.983	-0.092	-0.087	0.018
0.115	40.613	0.130	0.285	0.378	0.246	1.357	0.667	-0.338	0.373	2.011	1.982	-0.094	-0.086	0.019
0.115	40.634	0.131	0.287	0.374	0.238	1.276	0.627	-0.192	0.429	2.015	1.983	-0.095	-0.083	0.019
0.115	40.594	0.133	0.286	0.363	0.231	1.239	0.648	0.089	0.388	2.002	1.988	-0.094	-0.079	0.018
0.115	40.607	0.131	0.284	0.346	0.224	1.277	0.718	0.401	0.275	2.000	1.991	-0.094	-0.079	0.019
0.115	40.579	0.128	0.282	0.327	0.218	1.347	0.796	0.461	0.160	2.011	1.990	-0.092	-0.076	0.016
0.116	40.591	0.123	0.279	0.303	0.212	1.392	0.805	0.211	0.088	2.004	1.994	-0.091	-0.073	0.016
0.116	40.610	0.117	0.273	0.277	0.207	1.344	0.749	-0.116	0.101	2.005	1.991	-0.090	-0.069	0.016
0.116	40.591	0.114	0.266	0.248	0.199	1.273	0.703	-0.210	0.291	2.011	1.995	-0.087	-0.068	0.014
0.116	40.561	0.114	0.256	0.217	0.196	1.191	0.703	-0.021	0.468	2.012	1.995	-0.085	-0.065	0.013
0.116	40.591	0.115	0.245	0.180	0.191	1.142	0.716	0.272	0.444	2.015	1.992	-0.083	-0.058	0.016
0.117	40.598	0.119	0.235	0.147	0.190	1.172	0.804	0.572	0.326	2.010	1.997	-0.079	-0.057	0.017
0.117	40.585	0.125	0.221	0.113	0.190	1.252	0.897	0.738	0.159	2.009	1.999	-0.077	-0.051	0.020
0.117	40.585	0.126	0.210	0.082	0.188	1.298	0.950	0.670	-0.009	2.009	1.996	-0.072	-0.046	0.022
0.117	40.585	0.130	0.200	0.052	0.187	1.362	0.954	0.369	-0.105	2.009	2.000	-0.073	-0.039	0.026
0.117	40.594	0.127	0.190	0.030	0.185	1.368	0.910	-0.029	-0.154	2.010	2.010	-0.067	-0.035	0.029
0.118	40.604	0.128	0.183	0.009	0.186	1.356	0.860	-0.269	-0.044	2.021	2.005	-0.065	-0.031	0.034
0.118	40.576	0.124	0.178	-0.006	0.187	1.366	0.835	-0.269	0.064	2.018	2.001	-0.064	-0.025	0.041
0.118	40.585	0.122	0.177	-0.015	0.187	1.368	0.880	0.000	0.074	2.017	2.005	-0.060	-0.020	0.045
0.118	40.601	0.122	0.174	-0.019	0.188	1.377	0.979	0.389	0.013	2.014	2.005	-0.058	-0.015	0.054
0.118	40.579	0.121	0.177	-0.020	0.190	1.395	1.078	0.560	-0.092	2.018	2.004	-0.055	-0.011	0.056
0.119	40.613	0.123	0.176	-0.016	0.191	1.422	1.184	0.422	-0.175	2.018	2.005	-0.056	-0.005	0.062
0.119	40.613	0.128	0.179	-0.011	0.192	1.445	1.134	0.135	-0.217	2.014	2.000	-0.054	-0.002	0.067
0.119	40.616	0.129	0.178	-0.005	0.194	1.480	1.123	-0.119	-0.140	2.019	2.006	-0.053	0.001	0.073
0.119	40.601	0.130	0.177	0.000	0.195	1.524	1.099	-0.204	-0.005	2.024	2.005	-0.054	0.004	0.077
0.119	40.625	0.128	0.177	0.007	0.195	1.547	1.130	-0.156	0.019	2.018	2.009	-0.051	0.005	0.082
0.120	40.634	0.127	0.175	0.014	0.195	1.542	1.186	0.004	-0.046	2.022	2.009	-0.055	0.004	0.083
0.120	40.634	0.121	0.172	0.022	0.192	1.535	1.238	0.238	-0.134	2.017	2.012	-0.055	0.007	0.084
0.120	40.628	0.121	0.171	0.030	0.194	1.478	1.272	0.397	-0.244	2.027	2.009	-0.056	0.004	0.088
0.120	40.646	0.123	0.168	0.040	0.193	1.446	1.257	0.393	-0.254	2.024	2.014	-0.057	0.003	0.087
0.120	40.631	0.125	0.166	0.051	0.189	1.397	1.187	0.220	-0.260	2.017	2.013	-0.060	0.002	0.088
0.121	40.652	0.130	0.161	0.060	0.180	1.387	1.162	-0.036	-0.289	2.022	2.015	-0.063	-0.004	0.088
0.121	40.640	0.135	0.157	0.074	0.176	1.407	1.145	-0.196	-0.292	2.019	2.012	-0.064	-0.007	0.092
0.121	40.649	0.140	0.155	0.084	0.166	1.452	1.174	-0.184	-0.366	2.027	2.011	-0.066	-0.009	0.088
0.121	40.680	0.142	0.151	0.094	0.152	1.517	1.232	-0.010	-0.465	2.025	2.018	-0.070	-0.013	0.089
0.121	40.674	0.142	0.149	0.104	0.138	1.529	1.235	0.228	-0.518	2.029	2.010	-0.070	-0.018	0.088
0.122	40.689	0.140	0.146	0.114	0.125	1.541	1.208	0.332	-0.512	2.030	2.010	-0.072	-0.019	0.088
0.122	40.701	0.139	0.141	0.119	0.113	1.545	1.150	0.301	-0.476	2.030	2.021	-0.077	-0.020	0.088
0.122	40.714	0.138	0.137	0.126	0.102	1.556	1.075	0.229	-0.407	2.029	2.018	-0.080	-0.023	0.087
0.122	40.714	0.138	0.134	0.132	0.095	1.609	1.017	0.166	-0.265	2.024	2.022	-0.081	-0.028	0.087
0.122	40.723	0.139	0.133	0.135	0.089	1.656	0.994	0.147	-0.162	2.024	2.021	-0.083	-0.030	0.089
0.123	40.726	0.142	0.127	0.141	0.085	1.685	0.973	0.214	-0.099	2.025	2.012	-0.084	-0.034	0.088
0.123	40.735	0.142	0.120	0.146	0.083	1.661	0.984	0.295	-0.128	2.032	2.025	-0.085	-0.033	0.088
0.123	40.738	0.145	0.117	0.149	0.082	1.615	0.977	0.373	-0.187	2.021	2.026	-0.086	-0.035	0.089
0.123	40.756	0.140	0.109	0.151	0.083	1.553	0.972	0.359	-0.299	2.024	2.025	-0.086	-0.037	0.090
0.123	40.762	0.134	0.103	0.154	0.083	1.490	0.957	0.280	-0.485	2.026	2.020	-0.090	-0.039	0.086
0.124	40.747	0.128	0.097	0.155	0.087	1.463	0.943	0.211	-0.638	2.026	2.022	-0.092	-0.041	0.088
0.124	40.756	0.122	0.092	0.154	0.091	1.498	0.938	0.228	-0.728	2.033	2.017	-0.095	-0.045	0.093
0.124	40.775	0.116	0.087	0.156	0.098	1.544	0.953	0.287	-0.678	2.029	2.021	-0.094	-0.048	0.094
0.124	40.771	0.112	0.079	0.153	0.104	1.585	0.975	0.372	-0.616	2.025	2.015	-0.098	-0.048	0.096
0.124	40.775	0.111	0.072	0.156	0.113	1.591	0.983	0.391	-0.487	2.030	2.020	-0.101	-0.054	0.097
0.125	40.784	0.111	0.065	0.160	0.116	1.551	0.970	0.360	-0.421	2.027	2.014	-0.101	-0.057	0.102
0.125	40.787	0.107	0.059	0.160	0.122	1.470	0.935	0.294	-0.431	2.026	2.023	-0.101	-0.062	0.103
0.125	40.781	0.102	0.055	0.163	0.126	1.395	0.880	0.203	-0.523	2.034	2.016	-0.103	-0.065	0.106
0.125	40.768	0.099	0.051	0.169	0.131	1.365	0.848	0.187	-0.615	2.025	2.022	-0.109	-0.073	0.113
0.125	40.781	0.092	0.047	0.176	0.133	1.347	0.875	0.243	-0.663	2.024	2.019	-0.109	-0.072	0.117
0.126	40.762	0.088	0.045	0.185	0.133	1.365	0.949	0.331	-0.681	2.028	2.015	-0.112	-0.074	0.120
0.126	40.762	0.082	0.043	0.194	0.135	1.389	1.043	0.400	-0.590	2.031	2.011	-0.114	-0.078	0.126
0.126	40.768	0.079	0.037	0.202	0.133	1.374	1.086	0.373	-0.566	2.023	2.017	-0.112	-0.081	0.137
0.126	40.790	0.077	0.038	0.209	0.132	1.334	1.094	0.230	-0.578	2.026	2.017	-0.116	-0.083	0.142
0.126	40.756	0.077	0.034	0.214	0.133	1.307	1.048	0.122	-0.630	2.027	2.022	-0.115	-0.084	0.154
0.127	40.778	0.071	0.034	0.220	0.132	1.306	0.956	0.045	-0.743	2.036	2.018	-0.111	-0.082	0.157
0.127	40.765	0.070	0.034	0.226	0.131	1.333	0.887	0.140	-0.798	2.032	2.021	-0.111	-0.084	0.166
0.127	40.759	0.067	0.033	0.228	0.135	1.334	0.849	0.291	-0.764	2.029	2.023	-0.112	-0.079	0.174
0.127	40.778	0.058	0.032	0.227	0.141	1.313	0.916	0.365	-0.677	2.031	2.019	-0.104	-0.077	0.183
0.127	40.768	0.055	0.029	0.224	0.150	1.250	1.015	0.411	-0.477	2.029	2.022	-0.099	-0.074	0.192
0.128	40.753	0.046	0.027	0.220	0.159	1.157	1.108	0.405	-0.325	2.022	2.021	-0.092	-0.068	0.198
0.128	40.787	0.043	0.025	0.214	0.171	1.083	1.137	0.389	-0.239	2.028	2.020	-0.084	-0.066	0.206
0.128	40.744	0.040	0.022	0.207	0.182	1.052	1.101	0.395	-0.241	2.029	2.024	-0.079	-0.058	0.211
0.128	40.775	0.038	0.019	0.198	0.193	1.043	1.003	0.361	-0.293	2.033	2.019	-0.070	-0.052	0.215
0.128	40.768	0.035	0.017	0.187	0.205	1.023	0.947	0.363	-0.359	2.026	2.025	-0.059	-0.044	0.217
0.129	40.765	0.035	0.012	0.177	0.218	1.041	0.993	0.417	-0.386	2.029	2.012	-0.051	-0.040	0.223
0.129	40.787	0.030	0.009	0.164	0.230	1.058	1.102	0.468	-0.413	2.021	2.017	-0.041	-0.035	0.221
0.129	40.762	0.026	0.006	0.149	0.243	1.054	1.246	0.484	-0.476	2.030	2.020	-0.031	-0.029	0.224
0.129	40.762	0.021	0.002	0.138	0.256	1.052	1.349	0.466	-0.498	2.027	2.011	-0.022	-0.029	0.223
0.129	40.747	0.016	-0.002	0.124	0.268	1.017	1.372	0.397	-0.524	2.028	2.024	-0.011	-0.025	0.220
0.130	40.744	0.011	-0.005	0.112	0.279	0.954	1.321	0.374	-0.525	2.036	2.014	-0.003	-0.025	0.216
0.130	40.747	0.009	-0.009	0.105	0.291	0.907	1.224	0.450	-0.523	2.034	2.017	0.003	-0.025	0.213
0.130	40.744	0.009	-0.011	0.097	0.301	0.863	1.168	0.536	-0.454	2.031	2.019	0.013	-0.024	0.205
0.130	40.738	0.008	-0.013	0.087	0.311	0.869	1.165	0.618	-0.379	2.027	2.014	0.019	-0.027	0.199
0.130	40.732	0.005	-0.016	0.080	0.325	0.949	1.240	0.620	-0.339	2.030	2.011	0.023	-0.030	0.194
0.131	40.741	0.004	-0.015	0.071	0.335	1.046	1.323	0.581	-0.365	2.024	2.012	0.030	-0.032	0.186
0.131	40.729	0.005	-0.018	0.066	0.348	1.185	1.367	0.530	-0.379	2.037	2.012	0.037	-0.036	0.178
0.131	40.741	0.007	-0.021	0.063	0.360	1.276	1.360	0.464	-0.378	2.030	2.013	0.037	-0.040	0.171
0.131	40.729	0.013	-0.020	0.056	0.367	1.314	1.314	0.475	-0.353	2.042	2.008	0.038	-0.045	0.161
0.131	40.726	0.016	-0.022	0.053	0.377	1.270	1.226	0.489	-0.296	2.032	2.011	0.039	-0.049	0.152
0.132	40.732	0.021	-0.021	0.050	0.381	1.188	1.193	0.532	-0.239	2.031	2.012	0.038	-0.054	0.147
0.132	40.723	0.022	-0.024	0.048	0.385	1.108	1.197	0.570	-0.170	2.034	2.014	0.038	-0.060	0.139
0.132	40.710	0.021	-0.027	0.044	0.386	1.010	1.239	0.555	-0.122	2.034	2.016	0.039	-0.063	0.133
0.132	40.698	0.021	-0.030	0.041	0.382	0.998	1.288	0.508	-0.092	2.029	2.010	0.039	-0.066	0.127
0.132	40.714	0.018	-0.032	0.039	0.373	1.017	1.301	0.437	-0.022	2.034	2.015	0.035	-0.070	0.123
0.133	40.695	0.012	-0.033	0.036	0.360	1.038	1.287	0.403	0.073	2.034	2.007	0.032	-0.074	0.119
0.133	40.723	0.013	-0.037	0.032	0.344	1.079	1.234	0.471	0.165	2.034	2.008	0.030	-0.075	0.116
0.133	40.741	0.014	-0.039	0.027	0.325	1.113	1.172	0.622	0.253	2.033	2.011	0.027	-0.077	0.113
0.133	40.717	0.013	-0.040	0.026	0.302	1.151	1.136	0.722	0.303	2.027	2.007	0.026	-0.078	0.112
0.133	40.714	0.015	-0.043	0.022	0.276	1.172	1.120	0.678	0.347	2.035	2.006	0.026	-0.076	0.112
0.134	40.720	0.016	-0.043	0.017	0.248	1.176	1.112	0.516	0.330	2.034	2.003	0.023	-0.072	0.114
0.134	40.726	0.016	-0.042	0.015	0.219	1.140	1.149	0.338	0.320	2.031	2.003	0.024	-0.073	0.111
0.134	40.710	0.013	-0.040	0.010	0.190	1.099	1.161	0.169	0.260	2.030	2.015	0.023	-0.071	0.112
0.134	40.726	0.010	-0.037	0.007	0.160	1.013	1.138	0.167	0.170	2.030	2.006	0.020	-0.067	0.114
0.134	40.710	0.005	-0.034	0.007	0.133	0.956	1.148	0.291	0.120	2.029	2.008	0.021	-0.063	0.118
0.135	40.723	0.001	-0.030	0.004	0.110	0.919	1.129	0.463	0.056	2.029	2.002	0.021	-0.058	0.122
0.135	40.717	-0.004	-0.025	0.003	0.088	0.949	1.124	0.535	0.040	2.028	2.002	0.020	-0.054	0.125
0.135	40.735	-0.010	-0.022	0.005	0.071	1.001	1.123	0.521	0.119	2.030	1.997	0.021	-0.048	0.130
0.135	40.726	-0.022	-0.018	0.007	0.057	1.086	1.081	0.424	0.220	2.027	1.998	0.021	-0.044	0.137
0.135	40.735	-0.014	-0.020	0.014	0.048	1.153	1.025	0.322	0.330	2.033	2.004	0.021	-0.039	0.140
0.136	40.726	-0.014	-0.024	0.017	0.043	1.130	0.969	0.245	0.390	2.028	1.998	0.020	-0.033	0.146
0.136	40.729	-0.016	-0.026	0.024	0.038	1.052	0.941	0.290	0.409	2.022	2.008	0.020	-0.030	0.149
0.136	40.729	-0.015	-0.030	0.031	0.036	0.943	0.919	0.459	0.416	2.032	2.000	0.017	-0.025	0.153
0.136	40.732	-0.020	-0.036	0.039	0.035	0.807	0.912	0.585	0.435	2.032	2.000	0.016	-0.022	0.154
0.136	40.738	-0.021	-0.036	0.048	0.029	0.746	0.954	0.703	0.476	2.032	1.996	0.015	-0.021	0.155
0.137	40.726	-0.026	-0.042	0.059	0.025	0.752	0.986	0.619	0.533	2.029	1.992	0.012	-0.017	0.157
0.137	40.759	-0.030	-0.044	0.066	0.016	0.792	1.011	0.375	0.536	2.029	1.992	0.012	-0.014	0.154
0.137	40.750	-0.033	-0.045	0.077	0.007	0.839	1.055	0.118	0.540	2.021	1.997	0.007	-0.015	0.152
0.137	40.732	-0.035	-0.046	0.083	-0.005	0.800	1.074	0.068	0.546	2.025	1.993	0.006	-0.014	0.151
0.137	40.744	-0.034	-0.047	0.089	-0.014	0.739	1.086	0.283	0.549	2.026	1.995	0.002	-0.013	0.142
0.138	40.753	-0.032	-0.050	0.089	-0.029	0.610	1.062	0.581	0.502	2.026	1.989	-0.002	-0.012	0.137
0.138	40.729	-0.031	-0.053	0.089	-0.041	0.487	1.028	0.840	0.529	2.030	1.989	-0.006	-0.014	0.131
0.138	40.735	-0.027	-0.057	0.086	-0.054	0.423	1.026	0.957	0.568	2.028	1.995	-0.007	-0.010	0.123
0.138	40.732	-0.026	-0.061	0.083	-0.067	0.417	1.043	0.951	0.717	2.027	1.992	-0.010	-0.012	0.115
0.138	40.738	-0.025	-0.067	0.077	-0.079	0.428	1.070	0.848	0.904	2.031	1.989	-0.015	-0.010	0.108
0.139	40.732	-0.024	-0.070	0.071	-0.089	0.470	1.125	0.688	0.996	2.015	1.988	-0.015	-0.008	0.101
0.139	40.750	-0.023	-0.069	0.062	-0.096	0.506	1.204	0.521	1.037	2.021	1.988	-0.015	-0.007	0.093
0.139	40.735	-0.020	-0.066	0.052	-0.102	0.545	1.247	0.506	0.985	2.022	1.992	-0.019	-0.005	0.086
0.139	40.732	-0.018	-0.066	0.043	-0.107	0.548	1.245	0.671	0.858	2.025	1.991	-0.018	-0.002	0.080
0.139	40.735	-0.011	-0.062	0.029	-0.106	0.544	1.231	0.841	0.801	2.023	1.991	-0.019	0.001	0.077
0.140	40.738	-0.005	-0.058	0.018	-0.102	0.521	1.167	0.914	0.834	2.025	1.991	-0.017	0.004	0.075
0.140	40.756	-0.000	-0.052	0.007	-0.100	0.496	1.114	0.762	0.894	2.028	1.984	-0.014	0.010	0.069
0.140	40.741	0.004	-0.046	-0.004	-0.094	0.480	1.100	0.520	1.019	2.028	1.988	-0.015	0.016	0.066
0.140	40.762	0.009	-0.040	-0.013	-0.086	0.451	1.132	0.372	1.123	2.029	1.989	-0.012	0.021	0.066
0.140	40.750	0.013	-0.032	-0.020	-0.078	0.429	1.210	0.413	1.157	2.034	1.983	-0.009	0.025	0.066
0.141	40.756	0.017	-0.029	-0.027	-0.067	0.445	1.266	0.635	1.223	2.032	1.975	-0.006	0.034	0.065
0.141	40.744	0.023	-0.022	-0.031	-0.060	0.472	1.272	0.848	1.287	2.024	1.978	-0.003	0.034	0.066
0.141	40.744	0.029	-0.019	-0.031	-0.051	0.498	1.234	0.962	1.350	2.026	1.984	0.002	0.038	0.070
0.141	40.741	0.036	-0.015	-0.032	-0.039	0.547	1.169	0.971	1.465	2.026	1.981	0.008	0.041	0.070
0.141	40.729	0.043	-0.013	-0.036	-0.027	0.597	1.123	0.865	1.578	2.022	1.973	0.009	0.042	0.070
0.142	40.744	0.048	-0.013	-0.034	-0.014	0.653	1.117	0.717	1.566	2.023	1.980	0.013	0.041	0.072
0.142	40.732	0.055	-0.013	-0.037	0.001	0.651	1.166	0.579	1.529	2.016	1.977	0.021	0.043	0.072
0.142	40.735	0.059	-0.015	-0.033	0.017	0.597	1.232	0.526	1.498	2.021	1.979	0.023	0.042	0.073
0.142	40.735	0.061	-0.016	-0.030	0.032	0.490	1.301	0.545	1.492	2.016	1.982	0.027	0.041	0.073
0.142	40.735	0.066	-0.019	-0.027	0.047	0.356	1.319	0.616	1.493	2.015	1.979	0.028	0.038	0.074
0.143	40.750	0.071	-0.019	-0.024	0.061	0.267	1.304	0.650	1.588	2.017	1.976	0.033	0.035	0.077
0.143	40.726	0.078	-0.021	-0.022	0.075	0.296	1.243	0.622	1.662	2.019	1.980	0.038	0.031	0.076
0.143	40.750	0.085	-0.019	-0.019	0.086	0.427	1.196	0.570	1.753	2.016	1.970	0.043	0.027	0.074
0.143	40.717	0.094	-0.019	-0.019	0.095	0.610	1.191	0.568	1.770	2.012	1.979	0.043	0.024	0.072
0.143	40.741	0.103	-0.015	-0.020	0.103	0.767	1.205	0.631	1.783	2.013	1.974	0.046	0.019	0.068
0.144	40.735	0.108	-0.014	-0.020	0.108	0.814	1.249	0.726	1.830	2.016	1.978	0.049	0.017	0.066
0.144	40.723	0.116	-0.011	-0.019	0.110	0.749	1.227	0.821	1.901	2.016	1.972	0.051	0.012	0.063
0.144	40.732	0.116	-0.008	-0.018	0.113	0.619	1.159	0.866	2.036	2.012	1.966	0.052	0.011	0.061
0.144	40.723	0.119	-0.002	-0.016	0.114	0.508	1.045	0.887	2.163	2.009	1.964	0.053	0.007	0.056
0.144	40.717	0.121	0.001	-0.013	0.114	0.457	0.923	0.909	2.237	2.017	1.960	0.055	0.002	0.052
0.145	40.717	0.121	0.004	-0.012	0.113	0.456	0.843	0.878	2.260	2.024	1.967	0.054	0.002	0.047
0.145	40.738	0.121	0.009	-0.008	0.109	0.482	0.816	0.777	2.216	2.022	1.967	0.054	0.002	0.041
0.145	40.729	0.125	0.016	-0.004	0.105	0.511	0.829	0.634	2.142	2.012	1.967	0.054	-0.001	0.036
0.145	40.729	0.125	0.023	0.002	0.103	0.460	0.840	0.537	2.096	2.015	1.961	0.055	-0.001	0.028
0.145	40.701	0.126	0.031	0.006	0.097	0.365	0.828	0.512	2.096	2.015	1.962	0.058	-0.000	0.024
0.146	40.738	0.125	0.037	0.012	0.102	0.249	0.752	0.635	2.175	2.020	1.968	0.053	-0.004	0.020
0.146	40.720	0.121	0.041	0.020	0.106	0.135	0.647	0.839	2.226	2.006	1.965	0.054	0.000	0.014
0.146	40.729	0.120	0.046	0.028	0.114	0.086	0.592	0.986	2.238	2.007	1.967	0.049	0.001	0.007
0.146	40.726	0.119	0.045	0.039	0.126	0.147	0.582	1.052	2.217	2.015	1.968	0.046	0.001	0.005
0.146	40.735	0.117	0.045	0.054	0.140	0.210	0.605	1.030	2.227	2.014	1.963	0.047	0.001	-0.002
0.147	40.695	0.119	0.046	0.066	0.157	0.276	0.681	0.910	2.242	2.011	1.965	0.044	0.001	0.001
0.147	40.717	0.121	0.039	0.081	0.178	0.287	0.687	0.756	2.355	2.016	1.966	0.037	0.001	0.003
0.147	40.732	0.123	0.035	0.098	0.198	0.232	0.652	0.597	2.472	2.007	1.958	0.038	0.000	-0.000
0.147	40.707	0.124	0.031	0.111	0.221	0.143	0.574	0.459	2.569	2.005	1.962	0.034	0.002	0.000
0.147	40.723	0.122	0.027	0.124	0.241	0.051	0.516	0.484	2.572	2.016	1.960	0.031	0.002	0.003
0.148	40.717	0.119	0.025	0.136	0.258	-0.009	0.512	0.594	2.484	2.012	1.956	0.030	0.001	0.006
0.148	40.723	0.118	0.025	0.147	0.282	-0.048	0.531	0.715	2.372	2.011	1.958	0.027	0.001	0.008
0.148	40.714	0.117	0.027	0.153	0.301	-0.064	0.558	0.746	2.265	2.017	1.956	0.025	0.001	0.014
0.148	40.710	0.111	0.028	0.158	0.320	-0.082	0.577	0.590	2.237	2.011	1.956	0.023	-0.000	0.021
0.148	40.723	0.110	0.030	0.161	0.338	-0.094	0.543	0.453	2.322	2.020	1.954	0.022	0.003	0.027
0.149	40.710	0.111	0.033	0.162	0.354	-0.118	0.488	0.414	2.429	2.011	1.958	0.019	0.006	0.033
0.149	40.741	0.114	0.034	0.160	0.366	-0.070	0.428	0.439	2.487	2.009	1.956	0.016	0.006	0.038
0.149	40.735	0.117	0.034	0.159	0.377	0.026	0.415	0.531	2.514	2.012	1.953	0.017	0.007	0.048
0.149	40.750	0.119	0.035	0.156	0.387	0.131	0.405	0.666	2.523	2.006	1.954	0.016	0.011	0.056
0.149	40.738	0.125	0.039	0.151	0.387	0.215	0.438	0.753	2.533	2.011	1.955	0.014	0.014	0.063
0.150	40.747	0.124	0.041	0.148	0.389	0.172	0.439	0.784	2.586	2.014	1.951	0.012	0.015	0.071
0.150	40.747	0.122	0.050	0.141	0.385	0.024	0.441	0.672	2.561	2.009	1.950	0.012	0.021	0.080
0.150	40.753	0.117	0.058	0.137	0.381	-0.155	0.414	0.489	2.541	2.018	1.946	0.010	0.026	0.086
0.150	40.771	0.111	0.067	0.132	0.379	-0.266	0.387	0.398	2.554	2.016	1.949	0.009	0.028	0.093
0.150	40.753	0.104	0.078	0.126	0.378	-0.271	0.400	0.419	2.538	2.005	1.946	0.008	0.028	0.098
0.151	40.759	0.103	0.089	0.120	0.377	-0.149	0.392	0.554	2.535	2.007	1.946	0.004	0.029	0.105
0.151	40.762	0.098	0.100	0.116	0.378	0.021	0.381	0.688	2.587	2.013	1.944	0.003	0.032	0.109
0.151	40.768	0.100	0.107	0.112	0.380	0.135	0.342	0.704	2.602	2.008	1.945	0.003	0.033	0.115
0.151	40.768	0.103	0.115	0.111	0.383	0.184	0.275	0.605	2.639	2.010	1.944	-0.002	0.034	0.118
0.151	40.778	0.107	0.119	0.114	0.385	0.160	0.225	0.482	2.712	2.009	1.948	-0.006	0.035	0.121
0.152	40.778	0.113	0.122	0.115	0.387	0.102	0.177	0.357	2.701	2.014	1.942	-0.008	0.035	0.129
0.152	40.781	0.115	0.126	0.120	0.389	0.069	0.180	0.377	2.731	2.007	1.940	-0.011	0.035	0.134
0.152	40.781	0.118	0.128	0.127	0.394	0.112	0.214	0.505	2.813	2.006	1.948	-0.016	0.033	0.137
0.152	40.802	0.114	0.129	0.131	0.396	0.179	0.245	0.599	2.822	2.010	1.941	-0.018	0.031	0.142
0.152	40.784	0.114	0.132	0.137	0.402	0.257	0.274	0.627	2.702	2.017	1.940	-0.022	0.030	0.144
0.153	40.811	0.110	0.134	0.146	0.408	0.286	0.253	0.585	2.675	2.011	1.944	-0.026	0.030	0.146
0.153	40.793	0.110	0.136	0.156	0.414	0.237	0.186	0.459	2.742	2.015	1.940	-0.030	0.027	0.152
0.153	40.781	0.112	0.133	0.166	0.424	0.157	0.084	0.337	2.773	2.020	1.947	-0.034	0.023	0.157
0.153	40.793	0.118	0.132	0.174	0.430	0.118	-0.072	0.276	2.803	2.022	1.942	-0.038	0.024	0.159
0.153	40.778	0.126	0.130	0.184	0.442	0.148	-0.149	0.318	2.736	2.012	1.936	-0.041	0.018	0.162
0.154	40.790	0.134	0.127	0.192	0.448	0.256	-0.196	0.437	2.677	2.013	1.932	-0.045	0.015	0.168
0.154	40.787	0.140	0.123	0.200	0.456	0.389	-0.158	0.548	2.537	2.010	1.939	-0.045	0.013	0.166
0.154	40.781	0.146	0.119	0.207	0.462	0.497	-0.124	0.563	2.390	2.014	1.945	-0.048	0.011	0.168
0.154	40.781	0.145	0.116	0.214	0.470	0.529	-0.082	0.501	2.409	2.017	1.934	-0.051	0.006	0.166
0.154	40.778	0.145	0.114	0.219	0.477	0.459	-0.062	0.356	2.494	2.015	1.937	-0.049	0.010	0.163
0.155	40.753	0.144	0.112	0.227	0.486	0.361	-0.053	0.217	2.630	2.017	1.940	-0.049	0.008	0.161
0.155	40.765	0.144	0.109	0.232	0.495	0.246	-0.077	0.131	2.712	2.017	1.936	-0.049	0.007	0.158
0.155	40.768	0.146	0.110	0.237	0.503	0.187	-0.143	0.083	2.741	2.016	1.946	-0.047	0.008	0.154
0.155	40.768	0.151	0.109	0.244	0.510	0.202	-0.194	0.180	2.735	2.017	1.945	-0.042	0.008	0.147
0.155	40.778	0.154	0.114	0.249	0.516	0.278	-0.217	0.234	2.609	2.008	1.939	-0.044	0.010	0.140
0.156	40.741	0.157	0.115	0.254	0.518	0.355	-0.233	0.263	2.513	2.010	1.934	-0.042	0.010	0.132
0.156	40.747	0.159	0.117	0.256	0.516	0.400	-0.221	0.280	2.473	2.018	1.940	-0.039	0.012	0.126
0.156	40.720	0.156	0.122	0.257	0.512	0.340	-0.226	0.193	2.476	2.016	1.937	-0.035	0.016	0.118
0.156	40.701	0.157	0.127	0.259	0.505	0.322	-0.214	0.167	2.586	2.008	1.937	-0.034	0.016	0.110
0.156	40.707	0.153	0.131	0.260	0.492	0.283	-0.201	0.208	2.683	2.007	1.935	-0.030	0.019	0.104
0.157	40.704	0.152	0.138	0.258	0.479	0.245	-0.187	0.201	2.691	2.012	1.940	-0.025	0.024	0.093
0.157	40.689	0.153	0.147	0.258	0.462	0.283	-0.144	0.254	2.672	2.013	1.935	-0.023	0.026	0.087
0.157	40.668	0.153	0.152	0.257	0.448	0.305	-0.167	0.396	2.660	2.010	1.933	-0.019	0.029	0.078
0.157	40.677	0.158	0.159	0.252	0.429	0.325	-0.209	0.463	2.618	2.002	1.938	-0.018	0.034	0.073
0.157	40.649	0.159	0.165	0.249	0.417	0.317	-0.334	0.506	2.608	2.019	1.940	-0.015	0.036	0.070
0.158	40.656	0.161	0.171	0.246	0.405	0.303	-0.446	0.478	2.570	2.010	1.941	-0.011	0.039	0.068
0.158	40.634	0.161	0.177	0.241	0.388	0.255	-0.504	0.437	2.510	2.018	1.935	-0.010	0.044	0.066
0.158	40.640	0.160	0.182	0.241	0.375	0.199	-0.488	0.400	2.502	2.016	1.934	-0.012	0.047	0.065
0.158	40.643	0.156	0.186	0.238	0.362	0.128	-0.416	0.374	2.510	2.009	1.937	-0.011	0.050	0.066
0.158	40.619	0.157	0.187	0.232	0.353	0.088	-0.327	0.354	2.484	2.010	1.942	-0.012	0.053	0.068
0.159	40.610	0.158	0.188	0.229	0.348	0.088	-0.271	0.302	2.494	2.011	1.934	-0.013	0.054	0.071
0.159	40.619	0.158	0.187	0.221	0.347	0.100	-0.287	0.308	2.484	2.009	1.927	-0.014	0.058	0.077
0.159	40.591	0.163	0.189	0.216	0.349	0.108	-0.375	0.348	2.460	2.009	1.936	-0.017	0.059	0.083
0.159	40.585	0.167	0.185	0.206	0.355	0.092	-0.485	0.431	2.446	2.012	1.933	-0.017	0.061	0.093
0.159	40.616	0.169	0.184	0.198	0.363	0.051	-0.563	0.435	2.431	2.007	1.938	-0.019	0.064	0.097
0.160	40.573	0.168	0.180	0.189	0.369	-0.032	-0.605	0.367	2.431	2.014	1.934	-0.021	0.064	0.107
0.160	40.585	0.165	0.177	0.179	0.379	-0.101	-0.575	0.277	2.497	2.019	1.935	-0.024	0.065	0.117
0.160	40.591	0.159	0.173	0.166	0.390	-0.159	-0.542	0.172	2.530	2.014	1.936	-0.025	0.066	0.127
0.160	40.564	0.156	0.169	0.157	0.401	-0.126	-0.505	0.096	2.518	2.013	1.936	-0.027	0.066	0.142
0.160	40.582	0.152	0.164	0.152	0.413	-0.066	-0.533	0.125	2.431	2.004	1.939	-0.030	0.067	0.151
0.161	40.567	0.153	0.162	0.145	0.426	0.048	-0.615	0.225	2.284	2.012	1.940	-0.033	0.067	0.163
0.161	40.564	0.157	0.154	0.145	0.437	0.117	-0.712	0.316	2.172	2.008	1.942	-0.032	0.067	0.177
0.161	40.573	0.165	0.151	0.146	0.448	0.112	-0.788	0.320	2.105	2.005	1.943	-0.034	0.072	0.190
0.161	40.567	0.170	0.149	0.148	0.459	0.044	-0.784	0.187	2.161	2.011	1.945	-0.034	0.071	0.202
0.161	40.561	0.176	0.148	0.154	0.464	-0.032	-0.754	0.002	2.301	2.009	1.942	-0.034	0.070	0.213
0.162	40.543	0.179	0.148	0.161	0.468	-0.053	-0.706	-0.148	2.448	2.012	1.943	-0.034	0.069	0.226
0.162	40.576	0.180	0.150	0.167	0.470	-0.007	-0.705	-0.130	2.447	2.012	1.939	-0.033	0.073	0.238
0.162	40.582	0.178	0.153	0.174	0.466	0.129	-0.764	0.033	2.354	2.015	1.947	-0.032	0.074	0.247
0.162	40.549	0.175	0.155	0.181	0.459	0.280	-0.876	0.286	2.198	2.013	1.939	-0.027	0.074	0.260
0.162	40.540	0.173	0.160	0.189	0.449	0.423	-0.987	0.521	2.042	2.005	1.938	-0.028	0.076	0.269
0.163	40.536	0.176	0.168	0.194	0.438	0.513	-1.041	0.609	2.065	2.008	1.942	-0.026	0.083	0.278
0.163	40.536	0.181	0.170	0.197	0.424	0.542	-1.045	0.450	2.217	2.009	1.939	-0.028	0.079	0.284
0.163	40.536	0.187	0.173	0.202	0.408	0.472	-0.984	0.088	2.400	2.012	1.936	-0.023	0.082	0.291
0.163	40.509	0.197	0.176	0.205	0.392	0.400	-0.902	-0.267	2.510	2.010	1.940	-0.023	0.081	0.296
0.163	40.524	0.201	0.176	0.208	0.374	0.351	-0.861	-0.315	2.446	2.003	1.941	-0.021	0.082	0.298
0.164	40.521	0.202	0.178	0.207	0.352	0.365	-0.857	-0.110	2.159	2.014	1.945	-0.021	0.084	0.299
0.164	40.527	0.202	0.180	0.203	0.326	0.425	-0.905	0.219	1.853	2.015	1.941	-0.018	0.085	0.300
0.164	40.527	0.202	0.181	0.197	0.301	0.538	-0.928	0.505	1.611	2.006	1.943	-0.021	0.085	0.299
0.164	40.530	0.199	0.184	0.189	0.276	0.656	-0.906	0.603	1.557	2.013	1.940	-0.022	0.083	0.292
0.164	40.515	0.199	0.183	0.179	0.245	0.750	-0.847	0.460	1.711	2.015	1.943	-0.024	0.084	0.287
0.165	40.543	0.204	0.185	0.171	0.215	0.776	-0.784	0.167	1.930	2.014	1.947	-0.024	0.082	0.283
0.165	40.555	0.213	0.188	0.163	0.188	0.777	-0.748	-0.077	2.155	2.005	1.945	-0.028	0.081	0.275
0.165	40.540	0.221	0.188	0.155	0.159	0.752	-0.768	-0.074	2.265	2.013	1.949	-0.030	0.080	0.262
0.165	40.536	0.230	0.187	0.145	0.134	0.747	-0.847	0.144	2.166	2.006	1.943	-0.033	0.076	0.253
0.165	40.540	0.237	0.185	0.137	0.105	0.787	-0.918	0.513	1.941	2.014	1.954	-0.037	0.075	0.245
0.166	40.555	0.240	0.183	0.131	0.078	0.865	-0.940	0.883	1.770	2.005	1.952	-0.034	0.074	0.228
0.166	40.543	0.242	0.181	0.122	0.051	0.971	-0.889	0.923	1.682	2.014	1.950	-0.037	0.069	0.216
0.166	40.570	0.241	0.175	0.114	0.028	1.045	-0.800	0.717	1.741	2.008	1.949	-0.040	0.065	0.204
0.166	40.561	0.239	0.173	0.103	0.002	1.034	-0.712	0.384	1.859	2.012	1.955	-0.040	0.068	0.189
0.166	40.546	0.241	0.172	0.095	-0.020	0.995	-0.652	0.159	1.940	2.019	1.956	-0.042	0.066	0.175
0.167	40.570	0.247	0.166	0.083	-0.039	0.959	-0.690	0.169	1.903	2.020	1.946	-0.044	0.067	0.163
0.167	40.573	0.252	0.167	0.071	-0.053	0.909	-0.731	0.407	1.750	2.009	1.948	-0.042	0.061	0.145
0.167	40.564	0.257	0.163	0.061	-0.063	0.910	-0.823	0.729	1.568	2.020	1.950	-0.045	0.060	0.139
0.167	40.585	0.259	0.161	0.050	-0.069	0.932	-0.860	0.912	1.466	2.019	1.951	-0.041	0.059	0.125
0.167	40.601	0.259	0.153	0.039	-0.072	0.956	-0.866	0.920	1.430	2.019	1.956	-0.038	0.058	0.118
0.168	40.582	0.255	0.150	0.027	-0.071	0.961	-0.803	0.694	1.477	2.012	1.953	-0.039	0.056	0.104
0.168	40.607	0.250	0.143	0.013	-0.063	0.921	-0.752	0.404	1.657	2.023	1.946	-0.039	0.056	0.094
0.168	40.607	0.245	0.139	-0.004	-0.057	0.848	-0.670	0.208	1.771	2.018	1.955	-0.039	0.054	0.086
0.168	40.604	0.240	0.134	-0.021	-0.046	0.795	-0.617	0.243	1.785	2.029	1.953	-0.036	0.052	0.080
0.168	40.607	0.241	0.130	-0.042	-0.032	0.793	-0.590	0.478	1.662	2.021	1.952	-0.035	0.052	0.073
0.169	40.619	0.240	0.126	-0.062	-0.017	0.793	-0.561	0.717	1.515	2.017	1.956	-0.033	0.049	0.069
0.169	40.607	0.242	0.122	-0.083	-0.001	0.836	-0.529	0.789	1.406	2.020	1.955	-0.033	0.048	0.064
0.169	40.625	0.243	0.119	-0.103	0.017	0.761	-0.483	0.670	1.319	2.013	1.955	-0.031	0.047	0.059
0.169	40.628	0.243	0.119	-0.121	0.036	0.660	-0.449	0.416	1.396	2.019	1.954	-0.031	0.045	0.058
0.169	40.625	0.241	0.117	-0.138	0.055	0.534	-0.431	0.203	1.405	2.024	1.963	-0.029	0.043	0.058
0.170	40.634	0.239	0.116	-0.153	0.071	0.424	-0.440	0.050	1.457	2.024	1.957	-0.032	0.042	0.057
0.170	40.616	0.235	0.115	-0.168	0.087	0.408	-0.436	0.062	1.453	2.022	1.956	-0.032	0.041	0.061
0.170	40.628	0.230	0.113	-0.179	0.101	0.436	-0.421	0.275	1.438	2.020	1.957	-0.030	0.040	0.066
0.170	40.625	0.228	0.113	-0.189	0.112	0.520	-0.385	0.532	1.421	2.018	1.956	-0.028	0.039	0.067
0.170	40.637	0.225	0.112	-0.200	0.120	0.578	-0.373	0.642	1.421	2.024	1.954	-0.031	0.038	0.072
0.171	40.640	0.222	0.109	-0.204	0.130	0.609	-0.386	0.525	1.399	2.027	1.959	-0.031	0.037	0.077
0.171	40.631	0.221	0.107	-0.207	0.137	0.532	-0.432	0.314	1.432	2.016	1.963	-0.027	0.038	0.083
0.171	40.625	0.221	0.105	-0.207	0.144	0.412	-0.476	0.101	1.430	2.024	1.960	-0.027	0.038	0.089
0.171	40.643	0.215	0.103	-0.204	0.152	0.293	-0.492	0.062	1.398	2.019	1.961	-0.028	0.037	0.096
0.171	40.637	0.212	0.102	-0.195	0.157	0.257	-0.471	0.174	1.319	2.024	1.960	-0.024	0.039	0.103
0.172	40.656	0.205	0.097	-0.183	0.164	0.282	-0.422	0.360	1.241	2.022	1.961	-0.018	0.039	0.107
0.172	40.671	0.200	0.095	-0.169	0.171	0.350	-0.368	0.457	1.189	2.024	1.960	-0.019	0.040	0.116
0.172	40.692	0.193	0.095	-0.152	0.176	0.405	-0.340	0.452	1.138	2.021	1.958	-0.015	0.041	0.121
0.172	40.698	0.190	0.092	-0.133	0.181	0.433	-0.360	0.307	1.153	2.017	1.962	-0.012	0.042	0.124
0.172	40.674	0.187	0.090	-0.115	0.183	0.422	-0.338	0.104	1.199	2.019	1.962	-0.005	0.042	0.131
0.173	40.689	0.186	0.088	-0.096	0.186	0.400	-0.319	-0.107	1.189	2.030	1.960	-0.001	0.043	0.134
0.173	40.683	0.185	0.088	-0.078	0.187	0.410	-0.289	-0.225	1.208	2.018	1.958	0.004	0.044	0.138
0.173	40.707	0.180	0.086	-0.059	0.188	0.424	-0.306	-0.158	1.273	2.025	1.959	0.010	0.047	0.140
0.173	40.714	0.176	0.085	-0.040	0.187	0.524	-0.379	0.014	1.302	2.029	1.959	0.015	0.047	0.140
0.173	40.710	0.169	0.081	-0.020	0.187	0.583	-0.477	0.146	1.281	2.025	1.959	0.019	0.046	0.139
0.174	40.726	0.163	0.077	-0.003	0.187	0.651	-0.523	0.195	1.276	2.022	1.962	0.024	0.050	0.141
0.174	40.717	0.159	0.075	0.017	0.191	0.730	-0.465	0.157	1.247	2.022	1.959	0.029	0.049	0.140
0.174	40.741	0.156	0.072	0.036	0.193	0.824	-0.368	0.126	1.198	2.029	1.965	0.031	0.046	0.141
0.174	40.738	0.155	0.070	0.053	0.194	0.944	-0.235	0.077	1.127	2.024	1.966	0.038	0.047	0.138
0.174	40.729	0.158	0.071	0.071	0.196	1.043	-0.166	0.013	1.052	2.031	1.959	0.039	0.045	0.139
0.175	40.759	0.156	0.073	0.088	0.198	1.174	-0.208	-0.024	1.020	2.022	1.960	0.045	0.046	0.135
0.175	40.747	0.158	0.071	0.103	0.203	1.281	-0.353	0.077	1.028	2.027	1.967	0.047	0.043	0.133
0.175	40.753	0.160	0.073	0.116	0.208	1.365	-0.519	0.230	1.013	2.026	1.958	0.047	0.042	0.132
0.175	40.735	0.161	0.072	0.129	0.209	1.394	-0.609	0.380	0.989	2.023	1.957	0.050	0.040	0.130
0.175	40.778	0.162	0.072	0.141	0.213	1.390	-0.604	0.350	0.961	2.020	1.964	0.049	0.039	0.131
0.176	40.741	0.162	0.071	0.153	0.214	1.348	-0.513	0.215	0.962	2.034	1.964	0.050	0.037	0.129
0.176	40.765	0.163	0.071	0.163	0.217	1.308	-0.410	0.024	0.969	2.017	1.961	0.050	0.036	0.130
0.176	40.765	0.165	0.069	0.172	0.215	1.317	-0.322	-0.117	0.947	2.035	1.967	0.050	0.031	0.132
0.176	40.756	0.167	0.065	0.178	0.217	1.356	-0.303	-0.184	0.956	2.021	1.959	0.048	0.032	0.134
0.176	40.762	0.167	0.061	0.181	0.218	1.378	-0.311	-0.095	0.920	2.024	1.958	0.047	0.029	0.134
0.177	40.753	0.172	0.056	0.185	0.217	1.496	-0.396	0.075	0.802	2.021	1.959	0.046	0.023	0.141
0.177	40.762	0.167	0.049	0.185	0.221	1.535	-0.446	0.231	0.653	2.022	1.960	0.045	0.024	0.141
0.177	40.768	0.166	0.046	0.188	0.224	1.560	-0.441	0.324	0.542	2.018	1.960	0.043	0.021	0.145
0.177	40.759	0.163	0.038	0.187	0.228	1.503	-0.396	0.239	0.432	2.013	1.959	0.043	0.019	0.151
0.177	40.768	0.160	0.036	0.187	0.233	1.429	-0.304	0.056	0.440	2.018	1.961	0.042	0.018	0.157
0.178	40.759	0.158	0.033	0.185	0.236	1.396	-0.233	-0.130	0.496	2.025	1.964	0.043	0.018	0.160
0.178	40.753	0.157	0.032	0.184	0.241	1.418	-0.182	-0.256	0.639	2.020	1.958	0.042	0.015	0.164
0.178	40.738	0.156	0.031	0.181	0.250	1.477	-0.165	-0.237	0.734	2.019	1.948	0.042	0.013	0.175
0.178	40.750	0.155	0.031	0.177	0.259	1.535	-0.157	-0.098	0.727	2.024	1.956	0.044	0.014	0.180
0.178	40.741	0.155	0.034	0.176	0.269	1.560	-0.154	0.057	0.635	2.010	1.947	0.041	0.014	0.187
0.179	40.771	0.149	0.038	0.180	0.282	1.539	-0.128	0.167	0.563	2.020	1.952	0.043	0.012	0.193
0.179	40.759	0.146	0.044	0.180	0.297	1.502	-0.078	0.122	0.540	2.016	1.954	0.043	0.013	0.199
0.179	40.729	0.141	0.049	0.179	0.313	1.448	-0.025	-0.012	0.583	2.013	1.952	0.043	0.015	0.206
0.179	40.756	0.137	0.054	0.182	0.332	1.415	0.038	-0.094	0.691	2.003	1.959	0.041	0.013	0.211
0.179	40.756	0.131	0.059	0.186	0.350	1.383	0.099	-0.063	0.774	2.013	1.959	0.043	0.011	0.217
0.180	40.753	0.128	0.062	0.191	0.364	1.359	0.114	0.022	0.773	2.017	1.956	0.042	0.012	0.224
0.180	40.762	0.125	0.064	0.197	0.374	1.341	0.108	0.142	0.700	2.023	1.951	0.041	0.012	0.225
0.180	40.750	0.122	0.064	0.202	0.382	1.330	0.118	0.240	0.628	2.016	1.955	0.038	0.012	0.228
0.180	40.775	0.121	0.062	0.207	0.382	1.338	0.145	0.219	0.591	2.004	1.955	0.038	0.012	0.230
0.180	40.775	0.120	0.057	0.211	0.381	1.340	0.208	0.077	0.597	2.019	1.947	0.040	0.010	0.232
0.181	40.778	0.115	0.052	0.215	0.375	1.343	0.268	-0.121	0.652	2.014	1.951	0.036	0.011	0.229
0.181	40.781	0.107	0.050	0.217	0.366	1.340	0.308	-0.264	0.698	2.006	1.949	0.038	0.010	0.226
0.181	40.768	0.103	0.054	0.218	0.352	1.320	0.334	-0.301	0.690	2.014	1.953	0.033	0.007	0.224
0.181	40.768	0.097	0.067	0.218	0.340	1.259	0.336	-0.243	0.645	2.006	1.955	0.031	0.007	0.220
0.181	40.775	0.092	0.086	0.215	0.330	1.209	0.357	-0.141	0.498	2.015	1.955	0.028	0.004	0.211
0.182	40.756	0.088	0.108	0.210	0.319	1.152	0.393	-0.068	0.360	2.012	1.949	0.027	0.004	0.204
0.182	40.768	0.088	0.129	0.204	0.304	1.148	0.427	-0.093	0.288	2.012	1.958	0.026	0.003	0.198
0.182	40.787	0.085	0.142	0.196	0.290	1.143	0.468	-0.186	0.310	2.005	1.957	0.026	0.003	0.185
0.182	40.778	0.085	0.150	0.183	0.277	1.142	0.497	-0.284	0.380	2.008	1.945	0.024	0.004	0.172
0.182	40.799	0.084	0.154	0.171	0.261	1.106	0.525	-0.289	0.456	2.003	1.945	0.026	-0.001	0.163
0.183	40.790	0.084	0.154	0.155	0.250	1.092	0.533	-0.245	0.519	1.996	1.948	0.024	0.001	0.151
0.183	40.778	0.080	0.150	0.144	0.237	1.107	0.573	-0.205	0.470	2.000	1.945	0.024	0.003	0.138
0.183	40.775	0.074	0.142	0.129	0.225	1.161	0.614	-0.135	0.375	2.002	1.949	0.023	0.004	0.126
0.183	40.793	0.069	0.136	0.115	0.218	1.229	0.627	-0.101	0.292	1.996	1.948	0.025	0.004	0.111
0.183	40.781	0.065	0.131	0.101	0.205	1.280	0.627	-0.073	0.310	1.995	1.947	0.024	0.007	0.102
0.184	40.775	0.063	0.129	0.086	0.198	1.278	0.577	-0.141	0.348	2.002	1.947	0.027	0.007	0.089
0.184	40.805	0.062	0.129	0.070	0.190	1.193	0.486	-0.216	0.395	2.002	1.950	0.030	0.009	0.077
0.184	40.771	0.064	0.135	0.055	0.181	1.078	0.443	-0.209	0.416	1.994	1.945	0.029	0.007	0.067
0.184	40.768	0.067	0.139	0.039	0.173	0.953	0.396	-0.116	0.376	1.994	1.948	0.028	0.011	0.056
0.184	40.768	0.069	0.142	0.023	0.160	0.901	0.454	0.072	0.234	2.005	1.946	0.027	0.012	0.047
0.185	40.765	0.070	0.142	0.010	0.149	0.930	0.553	0.184	0.129	2.005	1.951	0.027	0.013	0.040
0.185	40.747	0.069	0.137	-0.006	0.137	1.066	0.641	0.145	0.132	1.993	1.942	0.025	0.010	0.033
0.185	40.762	0.067	0.131	-0.020	0.122	1.177	0.689	0.040	0.253	1.992	1.945	0.024	0.009	0.032
0.185	40.726	0.066	0.123	-0.035	0.109	1.285	0.640	-0.074	0.396	1.992	1.946	0.021	0.007	0.030
0.185	40.762	0.064	0.115	-0.047	0.096	1.277	0.574	-0.088	0.484	1.988	1.942	0.019	0.006	0.021
0.186	40.750	0.067	0.106	-0.063	0.085	1.236	0.510	-0.007	0.512	1.988	1.943	0.014	0.003	0.020
0.186	40.744	0.069	0.095	-0.079	0.077	1.171	0.499	0.120	0.477	1.992	1.941	0.006	0.000	0.019
0.186	40.744	0.070	0.087	-0.094	0.068	1.113	0.551	0.234	0.419	1.999	1.949	0.007	-0.003	0.015
0.186	40.759	0.076	0.082	-0.110	0.063	1.142	0.623	0.223	0.404	1.996	1.941	0.002	-0.008	0.019
0.186	40.732	0.075	0.079	-0.125	0.063	1.179	0.693	0.209	0.481	1.996	1.952	-0.004	-0.009	0.020
0.187	40.726	0.072	0.082	-0.136	0.062	1.248	0.757	0.195	0.558	1.989	1.942	-0.007	-0.016	0.020
0.187	40.723	0.071	0.082	-0.148	0.061	1.332	0.756	0.226	0.645	1.993	1.945	-0.014	-0.016	0.025
0.187	40.744	0.067	0.083	-0.153	0.060	1.309	0.713	0.269	0.645	1.993	1.948	-0.018	-0.016	0.024
0.187	40.723	0.064	0.085	-0.154	0.058	1.252	0.688	0.294	0.631	1.998	1.948	-0.022	-0.021	0.027
0.187	40.720	0.064	0.085	-0.156	0.054	1.171	0.688	0.269	0.593	1.997	1.947	-0.026	-0.023	0.031
0.188	40.729	0.066	0.085	-0.154	0.050	1.116	0.734	0.199	0.530	1.988	1.947	-0.031	-0.024	0.036
0.188	40.732	0.070	0.084	-0.151	0.042	1.105	0.798	0.058	0.492	1.990	1.942	-0.032	-0.024	0.040
0.188	40.723	0.073	0.085	-0.141	0.035	1.130	0.813	-0.033	0.506	1.987	1.943	-0.034	-0.023	0.044
0.188	40.729	0.073	0.084	-0.136	0.024	1.197	0.788	-0.090	0.517	1.992	1.934	-0.036	-0.022	0.047
0.188	40.717	0.070	0.083	-0.129	0.010	1.239	0.759	-0.052	0.500	1.983	1.942	-0.038	-0.020	0.049
0.189	40.738	0.072	0.082	-0.120	-0.005	1.257	0.690	0.087	0.482	1.987	1.936	-0.038	-0.017	0.051
0.189	40.741	0.069	0.086	-0.115	-0.022	1.189	0.702	0.166	0.493	1.990	1.942	-0.038	-0.013	0.052
0.189	40.732	0.069	0.089	-0.111	-0.041	1.125	0.744	0.216	0.513	1.991	1.942	-0.039	-0.014	0.053
0.189	40.729	0.066	0.095	-0.105	-0.061	1.090	0.797	0.216	0.521	1.991	1.935	-0.038	-0.010	0.053
0.189	40.732	0.064	0.099	-0.100	-0.079	1.057	0.844	0.196	0.553	1.986	1.937	-0.037	-0.003	0.050
0.190	40.735	0.064	0.102	-0.098	-0.099	1.100	0.894	0.192	0.598	1.990	1.937	-0.038	-0.001	0.049
0.190	40.735	0.061	0.101	-0.097	-0.114	1.135	0.936	0.211	0.614	1.986	1.934	-0.036	-0.001	0.048
0.190	40.765	0.058	0.097	-0.096	-0.128	1.151	0.990	0.235	0.590	1.984	1.936	-0.034	0.005	0.043
0.190	40.759	0.057	0.093	-0.099	-0.145	1.131	1.037	0.258	0.507	1.987	1.943	-0.036	0.008	0.039
0.190	40.756	0.056	0.084	-0.105	-0.154	1.088	1.035	0.187	0.473	1.986	1.939	-0.035	0.008	0.035
0.191	40.771	0.057	0.077	-0.109	-0.162	1.083	1.055	0.076	0.458	1.984	1.941	-0.036	0.011	0.031
0.191	40.753	0.059	0.066	-0.120	-0.168	1.071	1.070	-0.048	0.462	1.979	1.940	-0.041	0.013	0.027
0.191	40.753	0.059	0.057	-0.131	-0.173	1.066	1.087	-0.136	0.500	1.991	1.940	-0.042	0.012	0.022
0.191	40.765	0.062	0.047	-0.144	-0.178	1.077	1.115	-0.163	0.520	1.988	1.937	-0.041	0.011	0.018
0.191	40.765	0.064	0.040	-0.156	-0.183	1.053	1.173	-0.116	0.505	1.989	1.937	-0.044	0.009	0.013
0.192	40.750	0.063	0.037	-0.168	-0.189	1.015	1.216	-0.009	0.475	1.990	1.936	-0.046	0.008	0.007
0.192	40.765	0.062	0.031	-0.184	-0.197	0.948	1.272	0.099	0.498	1.994	1.930	-0.046	0.006	0.002
0.192	40.756	0.059	0.028	-0.196	-0.207	0.937	1.299	0.114	0.525	1.977	1.927	-0.049	0.002	-0.003
0.192	40.744	0.057	0.022	-0.208	-0.216	0.920	1.323	0.068	0.561	1.989	1.935	-0.053	0.000	-0.007
0.192	40.756	0.056	0.019	-0.219	-0.230	0.931	1.293	-0.004	0.554	1.981	1.931	-0.053	-0.003	-0.011
0.193	40.744	0.057	0.015	-0.228	-0.245	0.941	1.277	0.050	0.551	1.988	1.934	-0.056	-0.005	-0.018
0.193	40.750	0.063	0.012	-0.238	-0.258	0.900	1.253	0.143	0.547	1.979	1.934	-0.056	-0.009	-0.025
0.193	40.762	0.070	0.007	-0.246	-0.277	0.871	1.241	0.240	0.531	1.981	1.931	-0.058	-0.013	-0.030
0.193	40.729	0.074	0.003	-0.252	-0.291	0.814	1.280	0.276	0.548	1.979	1.928	-0.060	-0.016	-0.040
0.193	40.741	0.076	-0.003	-0.256	-0.306	0.793	1.275	0.257	0.581	1.981	1.927	-0.059	-0.018	-0.052
0.194	40.726	0.080	-0.008	-0.260	-0.324	0.798	1.252	0.192	0.629	1.989	1.932	-0.061	-0.022	-0.054
0.194	40.738	0.080	-0.012	-0.259	-0.335	0.838	1.200	0.187	0.632	1.976	1.928	-0.061	-0.023	-0.065
0.194	40.738	0.077	-0.011	-0.259	-0.346	0.870	1.189	0.264	0.595	1.984	1.923	-0.061	-0.023	-0.075
0.194	40.735	0.076	-0.009	-0.256	-0.348	0.890	1.203	0.360	0.604	1.988	1.925	-0.062	-0.027	-0.085
0.194	40.747	0.071	-0.007	-0.256	-0.352	0.895	1.248	0.453	0.586	1.978	1.932	-0.059	-0.030	-0.092
0.195	40.738	0.069	-0.004	-0.253	-0.347	0.853	1.324	0.487	0.603	1.978	1.921	-0.058	-0.031	-0.108
0.195	40.729	0.069	-0.002	-0.252	-0.338	0.778	1.387	0.440	0.629	1.986	1.923	-0.058	-0.032	-0.120
0.195	40.729	0.066	-0.002	-0.250	-0.325	0.692	1.409	0.372	0.658	1.991	1.917	-0.057	-0.036	-0.132
0.195	40.747	0.069	-0.003	-0.250	-0.306	0.639	1.407	0.300	0.645	1.981	1.924	-0.056	-0.035	-0.143
0.195	40.720	0.071	-0.004	-0.244	-0.284	0.608	1.385	0.300	0.613	1.980	1.925	-0.055	-0.035	-0.154
0.196	40.747	0.074	-0.005	-0.243	-0.256	0.644	1.375	0.312	0.571	1.977	1.922	-0.055	-0.036	-0.165
0.196	40.735	0.074	-0.006	-0.240	-0.227	0.683	1.401	0.378	0.557	1.972	1.926	-0.055	-0.039	-0.176
0.196	40.738	0.074	-0.008	-0.238	-0.196	0.710	1.459	0.429	0.608	1.970	1.918	-0.053	-0.038	-0.185
0.196	40.720	0.072	-0.007	-0.235	-0.166	0.714	1.554	0.396	0.641	1.973	1.917	-0.055	-0.041	-0.193
0.196	40.723	0.073	-0.010	-0.231	-0.135	0.741	1.595	0.342	0.713	1.980	1.922	-0.060	-0.044	-0.200
0.197	40.756	0.062	-0.009	-0.228	-0.106	0.702	1.640	0.265	0.787	1.974	1.913	-0.060	-0.042	-0.208
0.197	40.717	0.062	-0.008	-0.224	-0.082	0.660	1.603	0.242	0.730	1.980	1.914	-0.062	-0.047	-0.212
0.197	40.723	0.061	-0.010	-0.219	-0.058	0.626	1.516	0.280	0.634	1.978	1.913	-0.065	-0.050	-0.218
0.197	40.732	0.058	-0.010	-0.215	-0.037	0.609	1.488	0.361	0.498	1.969	1.906	-0.069	-0.054	-0.225
0.197	40.753	0.059	-0.012	-0.212	-0.022	0.646	1.493	0.456	0.449	1.968	1.914	-0.071	-0.056	-0.227
0.198	40.744	0.059	-0.014	-0.207	-0.013	0.650	1.522	0.495	0.445	1.965	1.910	-0.074	-0.060	-0.231
0.198	40.732	0.061	-0.020	-0.200	-0.007	0.681	1.551	0.472	0.533	1.958	1.911	-0.079	-0.064	-0.238
0.198	40.720	0.061	-0.022	-0.192	-0.007	0.701	1.571	0.391	0.642	1.965	1.910	-0.083	-0.066	-0.238
0.198	40.717	0.061	-0.027	-0.188	-0.011	0.693	1.543	0.336	0.713	1.963	1.901	-0.087	-0.070	-0.239
0.198	40.710	0.057	-0.031	-0.181	-0.019	0.679	1.493	0.366	0.751	1.962	1.902	-0.091	-0.075	-0.244
0.199	40.717	0.055	-0.035	-0.176	-0.032	0.659	1.462	0.458	0.714	1.959	1.900	-0.094	-0.077	-0.245
0.199	40.701	0.052	-0.041	-0.170	-0.049	0.642	1.487	0.542	0.627	1.965	1.906	-0.101	-0.081	-0.248
0.199	40.723	0.050	-0.047	-0.165	-0.068	0.615	1.523	0.597	0.634	1.966	1.900	-0.102	-0.083	-0.251
0.199	40.717	0.051	-0.049	-0.162	-0.090	0.601	1.592	0.589	0.668	1.955	1.899	-0.104	-0.086	-0.255
0.199	40.701	0.050	-0.055	-0.161	-0.110	0.566	1.599	0.496	0.741	1.953	1.900	-0.109	-0.084	-0.259
0.200	40.701	0.050	-0.058	-0.153	-0.131	0.521	1.578	0.327	0.799	1.947	1.892	-0.110	-0.090	-0.264
0.200	40.701	0.049	-0.060	-0.149	-0.149	0.458	1.523	0.194	0.797	1.959	1.898	-0.114	-0.089	-0.268
0.200	40.695	0.046	-0.063	-0.145	-0.169	0.423	1.472	0.149	0.735	1.955	1.897	-0.113	-0.089	-0.271
0.200	40.686	0.043	-0.064	-0.140	-0.185	0.388	1.444	0.207	0.637	1.953	1.896	-0.110	-0.088	-0.278
0.200	40.689	0.039	-0.064	-0.135	-0.198	0.413	1.480	0.301	0.555	1.957	1.892	-0.113	-0.086	-0.283
0.201	40.714	0.035	-0.062	-0.129	-0.209	0.485	1.532	0.349	0.520	1.948	1.895	-0.112	-0.083	-0.288
0.201	40.695	0.032	-0.057	-0.125	-0.219	0.563	1.562	0.302	0.585	1.953	1.895	-0.112	-0.081	-0.292
0.201	40.710	0.031	-0.055	-0.123	-0.224	0.646	1.529	0.197	0.708	1.951	1.893	-0.110	-0.078	-0.297
0.201	40.701	0.028	-0.049	-0.118	-0.227	0.700	1.466	0.114	0.827	1.952	1.897	-0.109	-0.072	-0.303
0.201	40.714	0.031	-0.045	-0.116	-0.225	0.679	1.393	0.066	0.865	1.944	1.888	-0.108	-0.066	-0.304
0.202	40.695	0.033	-0.042	-0.111	-0.222	0.628	1.333	0.090	0.786	1.940	1.891	-0.105	-0.060	-0.307
0.202	40.695	0.033	-0.038	-0.105	-0.214	0.546	1.333	0.192	0.677	1.950	1.886	-0.104	-0.057	-0.309
0.202	40.723	0.032	-0.035	-0.097	-0.204	0.485	1.350	0.343	0.550	1.941	1.888	-0.103	-0.048	-0.308
0.202	40.701	0.030	-0.031	-0.087	-0.193	0.493	1.401	0.415	0.473	1.945	1.885	-0.101	-0.044	-0.311
0.202	40.698	0.024	-0.029	-0.075	-0.182	0.531	1.432	0.372	0.492	1.944	1.879	-0.103	-0.039	-0.310
0.203	40.729	0.021	-0.024	-0.064	-0.173	0.598	1.444	0.253	0.550	1.941	1.880	-0.103	-0.032	-0.310
0.203	40.698	0.019	-0.022	-0.051	-0.161	0.620	1.439	0.078	0.621	1.940	1.876	-0.102	-0.027	-0.303
0.203	40.701	0.018	-0.022	-0.039	-0.151	0.619	1.417	0.003	0.631	1.938	1.882	-0.101	-0.023	-0.298
0.203	40.701	0.021	-0.020	-0.025	-0.148	0.604	1.418	0.025	0.628	1.933	1.885	-0.104	-0.016	-0.293
0.203	40.695	0.024	-0.019	-0.013	-0.146	0.611	1.435	0.119	0.608	1.930	1.886	-0.106	-0.013	-0.287
0.204	40.698	0.022	-0.017	-0.001	-0.146	0.584	1.464	0.213	0.614	1.937	1.880	-0.106	-0.013	-0.282
0.204	40.704	0.022	-0.019	0.008	-0.148	0.562	1.511	0.260	0.648	1.930	1.874	-0.108	-0.011	-0.275
0.204	40.701	0.018	-0.022	0.018	-0.152	0.547	1.554	0.311	0.700	1.926	1.877	-0.111	-0.010	-0.268
0.204	40.689	0.014	-0.028	0.026	-0.160	0.506	1.561	0.232	0.706	1.926	1.872	-0.109	-0.009	-0.262
0.204	40.701	0.006	-0.031	0.034	-0.167	0.474	1.556	0.128	0.727	1.926	1.879	-0.112	-0.008	-0.254
0.205	40.695	0.005	-0.037	0.044	-0.176	0.482	1.525	0.109	0.717	1.921	1.872	-0.112	-0.005	-0.245
0.205	40.686	0.002	-0.042	0.051	-0.188	0.528	1.551	0.175	0.707	1.925	1.875	-0.111	-0.002	-0.239
0.205	40.698	0.005	-0.051	0.060	-0.199	0.609	1.583	0.300	0.693	1.922	1.872	-0.109	0.003	-0.235
0.205	40.704	0.010	-0.056	0.066	-0.209	0.704	1.634	0.342	0.739	1.928	1.874	-0.108	0.002	-0.231
0.205	40.686	0.014	-0.060	0.073	-0.217	0.764	1.632	0.331	0.848	1.927	1.867	-0.104	0.005	-0.220
0.206	40.695	0.018	-0.064	0.078	-0.222	0.814	1.587	0.282	0.959	1.933	1.866	-0.098	0.008	-0.212
0.206	40.680	0.016	-0.066	0.085	-0.223	0.784	1.527	0.220	1.030	1.921	1.866	-0.092	0.013	-0.213
0.206	40.671	0.015	-0.066	0.089	-0.219	0.719	1.444	0.175	1.016	1.917	1.870	-0.090	0.017	-0.207
0.206	40.659	0.007	-0.064	0.095	-0.207	0.621	1.385	0.147	0.977	1.918	1.865	-0.081	0.021	-0.202
0.206	40.689	0.001	-0.062	0.100	-0.191	0.561	1.395	0.163	0.924	1.922	1.861	-0.068	0.027	-0.202
0.207	40.668	-0.001	-0.059	0.104	-0.174	0.569	1.448	0.195	0.912	1.914	1.862	-0.062	0.033	-0.200
0.207	40.671	-0.008	-0.056	0.106	-0.150	0.589	1.510	0.232	0.996	1.913	1.866	-0.048	0.037	-0.202
0.207	40.668	-0.003	-0.054	0.109	-0.126	0.681	1.541	0.239	1.099	1.919	1.868	-0.043	0.040	-0.201
0.207	40.662	-0.001	-0.055	0.107	-0.100	0.692	1.483	0.213	1.132	1.916	1.863	-0.033	0.054	-0.204
0.207	40.652	0.003	-0.052	0.106	-0.074	0.707	1.422	0.222	1.115	1.913	1.861	-0.022	0.055	-0.207
0.208	40.662	0.002	-0.053	0.100	-0.048	0.660	1.378	0.322	1.054	1.908	1.850	-0.012	0.063	-0.211
0.208	40.649	0.001	-0.052	0.093	-0.025	0.648	1.379	0.481	0.982	1.915	1.854	-0.004	0.066	-0.216
0.208	40.640	-0.004	-0.055	0.088	-0.002	0.627	1.425	0.590	0.958	1.911	1.861	0.004	0.069	-0.218
0.208	40.683	-0.007	-0.057	0.079	0.018	0.653	1.463	0.572	0.992	1.909	1.858	0.013	0.073	-0.222
0.208	40.640	-0.010	-0.059	0.074	0.032	0.706	1.525	0.463	1.104	1.908	1.853	0.019	0.075	-0.228
0.209	40.659	-0.012	-0.060	0.068	0.043	0.780	1.545	0.322	1.232	1.911	1.852	0.024	0.076	-0.231
0.209	40.659	-0.009	-0.059	0.062	0.050	0.835	1.542	0.242	1.260	1.910	1.853	0.029	0.077	-0.236
0.209	40.652	-0.003	-0.060	0.058	0.053	0.850	1.536	0.198	1.202	1.908	1.847	0.033	0.078	-0.240
0.209	40.640	-0.001	-0.059	0.054	0.049	0.787	1.522	0.198	1.008	1.911	1.845	0.037	0.077	-0.247
0.209	40.649	0.007	-0.060	0.048	0.043	0.736	1.525	0.167	0.872	1.916	1.840	0.038	0.074	-0.249
0.210	40.646	0.007	-0.062	0.041	0.031	0.644	1.530	0.187	0.803	1.909	1.845	0.039	0.073	-0.256
0.210	40.649	0.006	-0.061	0.035	0.018	0.606	1.527	0.232	0.908	1.904	1.851	0.039	0.070	-0.261
0.210	40.634	0.006	-0.061	0.027	0.000	0.584	1.520	0.262	1.058	1.910	1.840	0.038	0.068	-0.260
0.210	40.631	0.004	-0.061	0.017	-0.018	0.622	1.487	0.253	1.235	1.907	1.848	0.038	0.065	-0.264
0.210	40.649	0.005	-0.060	0.007	-0.035	0.680	1.475	0.271	1.383	1.903	1.844	0.036	0.062	-0.267
0.211	40.631	0.007	-0.058	-0.006	-0.053	0.700	1.440	0.373	1.431	1.898	1.848	0.035	0.058	-0.268
0.211	40.643	0.012	-0.057	-0.019	-0.069	0.715	1.457	0.528	1.359	1.901	1.841	0.035	0.053	-0.266
0.211	40.640	0.016	-0.053	-0.030	-0.083	0.690	1.488	0.653	1.225	1.910	1.844	0.034	0.050	-0.270
0.211	40.628	0.019	-0.050	-0.046	-0.095	0.655	1.519	0.699	1.117	1.903	1.840	0.032	0.049	-0.272
0.211	40.622	0.019	-0.045	-0.060	-0.108	0.628	1.529	0.731	1.099	1.902	1.848	0.033	0.046	-0.272
0.212	40.622	0.021	-0.044	-0.076	-0.118	0.642	1.494	0.707	1.116	1.902	1.837	0.033	0.044	-0.273
0.212	40.622	0.015	-0.041	-0.088	-0.126	0.702	1.480	0.682	1.161	1.901	1.843	0.030	0.043	-0.273
0.212	40.628	0.012	-0.041	-0.104	-0.132	0.764	1.465	0.669	1.246	1.906	1.839	0.029	0.046	-0.273
0.212	40.625	0.011	-0.039	-0.115	-0.138	0.800	1.467	0.679	1.261	1.899	1.836	0.029	0.044	-0.273
0.212	40.625	0.012	-0.037	-0.125	-0.140	0.801	1.470	0.741	1.224	1.898	1.832	0.031	0.044	-0.272
0.213	40.613	0.017	-0.035	-0.134	-0.141	0.723	1.481	0.862	1.189	1.896	1.838	0.030	0.044	-0.272
0.213	40.607	0.023	-0.033	-0.142	-0.140	0.617	1.479	0.999	1.174	1.899	1.830	0.030	0.044	-0.272
0.213	40.625	0.029	-0.031	-0.146	-0.134	0.528	1.460	1.077	1.197	1.902	1.829	0.030	0.046	-0.271
0.213	40.601	0.036	-0.030	-0.146	-0.127	0.493	1.396	1.141	1.226	1.897	1.830	0.030	0.044	-0.269
0.213	40.585	0.035	-0.031	-0.146	-0.117	0.524	1.302	1.145	1.283	1.897	1.830	0.030	0.046	-0.270
0.214	40.607	0.035	-0.030	-0.146	-0.107	0.596	1.219	1.136	1.383	1.895	1.831	0.030	0.046	-0.269
0.214	40.616	0.038	-0.030	-0.144	-0.095	0.672	1.192	1.124	1.489	1.898	1.833	0.032	0.047	-0.266
0.214	40.601	0.038	-0.030	-0.140	-0.082	0.671	1.231	1.078	1.491	1.897	1.828	0.033	0.046	-0.265
0.214	40.616	0.042	-0.032	-0.138	-0.072	0.613	1.240	1.019	1.414	1.895	1.829	0.029	0.045	-0.266
0.214	40.591	0.047	-0.031	-0.133	-0.063	0.530	1.262	0.929	1.300	1.895	1.832	0.027	0.043	-0.262
0.215	40.576	0.052	-0.032	-0.128	-0.056	0.482	1.246	0.913	1.141	1.895	1.827	0.027	0.042	-0.260
0.215	40.570	0.057	-0.032	-0.125	-0.051	0.473	1.173	0.908	1.065	1.894	1.828	0.028	0.036	-0.259
0.215	40.598	0.060	-0.032	-0.119	-0.048	0.528	1.090	0.871	1.086	1.894	1.828	0.024	0.035	-0.256
0.215	40.579	0.060	-0.030	-0.114	-0.048	0.583	1.019	0.869	1.204	1.886	1.823	0.023	0.029	-0.254
0.215	40.558	0.058	-0.026	-0.111	-0.055	0.620	0.965	0.862	1.355	1.895	1.822	0.023	0.027	-0.252
0.216	40.543	0.059	-0.020	-0.105	-0.062	0.633	0.935	0.886	1.428	1.890	1.829	0.021	0.027	-0.251
0.216	40.561	0.060	-0.019	-0.106	-0.073	0.575	0.887	1.009	1.370	1.887	1.814	0.020	0.022	-0.248
0.216	40.549	0.061	-0.016	-0.106	-0.088	0.505	0.843	1.125	1.270	1.887	1.824	0.019	0.019	-0.244
0.216	40.552	0.065	-0.016	-0.108	-0.105	0.448	0.800	1.183	1.195	1.888	1.826	0.013	0.016	-0.241
0.216	40.549	0.068	-0.011	-0.113	-0.121	0.425	0.783	1.209	1.198	1.883	1.823	0.015	0.016	-0.239
0.217	40.552	0.072	-0.011	-0.114	-0.142	0.471	0.780	1.139	1.269	1.885	1.823	0.015	0.012	-0.233
0.217	40.546	0.072	-0.010	-0.117	-0.162	0.533	0.797	1.021	1.411	1.888	1.820	0.009	0.013	-0.230
0.217	40.546	0.068	-0.008	-0.120	-0.184	0.570	0.816	0.860	1.437	1.886	1.821	0.009	0.013	-0.229
0.217	40.546	0.071	-0.010	-0.126	-0.206	0.578	0.833	0.757	1.427	1.889	1.815	0.009	0.014	-0.223
0.217	40.549	0.068	-0.008	-0.135	-0.231	0.529	0.817	0.803	1.324	1.890	1.821	0.007	0.012	-0.220
0.218	40.543	0.069	-0.008	-0.144	-0.250	0.509	0.774	0.898	1.216	1.884	1.818	0.006	0.014	-0.219
0.218	40.558	0.067	-0.004	-0.155	-0.270	0.480	0.727	0.932	1.090	1.879	1.817	0.005	0.013	-0.217
0.218	40.533	0.069	0.000	-0.167	-0.288	0.525	0.691	0.902	1.056	1.877	1.811	0.005	0.014	-0.213
0.218	40.543	0.072	0.004	-0.182	-0.302	0.595	0.695	0.857	1.137	1.886	1.820	0.005	0.017	-0.216
0.218	40.576	0.076	0.007	-0.197	-0.312	0.658	0.722	0.844	1.273	1.877	1.814	0.005	0.020	-0.217
0.219	40.552	0.078	0.010	-0.214	-0.319	0.705	0.751	0.846	1.413	1.881	1.813	0.004	0.022	-0.216
0.219	40.564	0.078	0.013	-0.231	-0.321	0.700	0.769	0.945	1.510	1.875	1.809	0.007	0.021	-0.219
0.219	40.558	0.080	0.016	-0.247	-0.323	0.693	0.771	1.099	1.502	1.881	1.810	0.008	0.025	-0.219
0.219	40.549	0.079	0.020	-0.262	-0.320	0.683	0.783	1.251	1.466	1.878	1.814	0.007	0.027	-0.223
0.219	40.564	0.081	0.022	-0.276	-0.317	0.701	0.760	1.323	1.386	1.876	1.810	0.009	0.026	-0.225
0.220	40.567	0.087	0.023	-0.285	-0.314	0.736	0.761	1.248	1.357	1.872	1.809	0.007	0.029	-0.222
0.220	40.552	0.095	0.024	-0.294	-0.310	0.737	0.748	1.086	1.403	1.871	1.805	0.006	0.039	-0.225
0.220	40.558	0.103	0.025	-0.302	-0.305	0.705	0.752	0.919	1.476	1.872	1.812	0.006	0.034	-0.226
0.220	40.561	0.112	0.023	-0.306	-0.301	0.637	0.712	0.870	1.531	1.869	1.811	0.006	0.035	-0.224
0.220	40.555	0.121	0.023	-0.308	-0.298	0.567	0.677	0.977	1.488	1.873	1.808	0.003	0.036	-0.223
0.221	40.540	0.127	0.021	-0.307	-0.295	0.535	0.666	1.150	1.361	1.878	1.811	0.002	0.038	-0.223
0.221	40.561	0.129	0.022	-0.304	-0.291	0.563	0.664	1.278	1.249	1.867	1.806	0.000	0.039	-0.224
0.221	40.570	0.131	0.021	-0.295	-0.287	0.660	0.663	1.298	1.167	1.870	1.807	-0.001	0.040	-0.219
0.221	40.536	0.132	0.018	-0.286	-0.281	0.765	0.699	1.216	1.195	1.865	1.802	-0.004	0.041	-0.214
0.221	40.543	0.133	0.014	-0.277	-0.271	0.825	0.741	1.090	1.302	1.871	1.800	-0.006	0.042	-0.213
0.222	40.561	0.138	0.011	-0.268	-0.259	0.802	0.774	1.002	1.434	1.871	1.805	-0.013	0.042	-0.209
0.222	40.546	0.142	0.010	-0.256	-0.245	0.704	0.816	1.014	1.482	1.860	1.800	-0.011	0.044	-0.202
0.222	40.558	0.152	0.008	-0.243	-0.225	0.598	0.821	1.150	1.458	1.870	1.804	-0.014	0.043	-0.199
0.222	40.570	0.158	0.008	-0.232	-0.205	0.525	0.811	1.278	1.437	1.866	1.801	-0.018	0.044	-0.195
0.222	40.564	0.163	0.007	-0.223	-0.185	0.499	0.800	1.309	1.418	1.860	1.805	-0.020	0.043	-0.192
0.223	40.555	0.166	0.009	-0.211	-0.160	0.518	0.799	1.221	1.383	1.861	1.798	-0.020	0.044	-0.184
0.223	40.546	0.166	0.012	-0.203	-0.131	0.520	0.790	1.040	1.379	1.866	1.791	-0.022	0.046	-0.182
0.223	40.552	0.165	0.021	-0.195	-0.107	0.513	0.813	0.848	1.423	1.858	1.797	-0.024	0.046	-0.179
0.223	40.567	0.162	0.029	-0.193	-0.080	0.436	0.819	0.783	1.523	1.863	1.792	-0.024	0.046	-0.174
0.223	40.567	0.162	0.041	-0.189	-0.054	0.346	0.828	0.845	1.580	1.866	1.788	-0.027	0.049	-0.171
0.224	40.564	0.161	0.053	-0.190	-0.028	0.259	0.824	1.015	1.611	1.867	1.791	-0.028	0.053	-0.168
0.224	40.567	0.162	0.066	-0.184	-0.006	0.221	0.801	1.125	1.642	1.860	1.795	-0.026	0.055	-0.164
0.224	40.564	0.165	0.075	-0.184	0.015	0.193	0.793	1.149	1.678	1.863	1.794	-0.026	0.056	-0.156
0.224	40.564	0.167	0.085	-0.180	0.034	0.199	0.778	1.045	1.736	1.863	1.788	-0.030	0.060	-0.156
0.224	40.570	0.164	0.092	-0.174	0.049	0.184	0.800	0.938	1.761	1.854	1.798	-0.024	0.065	-0.154
0.225	40.573	0.162	0.098	-0.170	0.061	0.148	0.795	0.900	1.753	1.860	1.792	-0.026	0.068	-0.149
0.225	40.561	0.157	0.104	-0.162	0.071	0.082	0.795	0.946	1.761	1.853	1.787	-0.020	0.071	-0.146
0.225	40.582	0.150	0.106	-0.154	0.078	0.025	0.785	1.057	1.713	1.857	1.785	-0.022	0.076	-0.143
0.225	40.579	0.145	0.109	-0.146	0.082	0.001	0.781	1.161	1.689	1.858	1.794	-0.021	0.081	-0.138
0.225	40.573	0.142	0.110	-0.137	0.085	-0.025	0.796	1.184	1.682	1.856	1.786	-0.020	0.089	-0.134
0.226	40.573	0.138	0.113	-0.129	0.086	-0.029	0.807	1.164	1.724	1.862	1.796	-0.018	0.090	-0.136
0.226	40.564	0.139	0.113	-0.121	0.089	-0.025	0.774	1.110	1.819	1.861	1.792	-0.016	0.095	-0.125
0.226	40.604	0.140	0.111	-0.113	0.092	-0.061	0.741	1.065	1.883	1.865	1.786	-0.013	0.098	-0.121
0.226	40.585	0.141	0.109	-0.103	0.095	-0.108	0.728	1.053	1.926	1.864	1.787	-0.010	0.101	-0.123
0.226	40.576	0.140	0.104	-0.091	0.098	-0.158	0.690	1.050	1.928	1.851	1.790	-0.011	0.105	-0.115
0.227	40.601	0.135	0.102	-0.077	0.103	-0.204	0.710	1.166	1.957	1.854	1.793	-0.003	0.108	-0.115
0.227	40.591	0.134	0.100	-0.065	0.109	-0.162	0.711	1.237	2.017	1.862	1.790	-0.004	0.110	-0.111
0.227	40.594	0.129	0.104	-0.050	0.121	-0.107	0.712	1.241	2.113	1.852	1.787	0.002	0.112	-0.109
0.227	40.588	0.126	0.115	-0.034	0.129	-0.024	0.683	1.103	2.175	1.856	1.778	0.007	0.111	-0.103
0.227	40.604	0.122	0.131	-0.018	0.144	0.025	0.587	0.892	2.218	1.853	1.789	0.013	0.111	-0.103
0.228	40.610	0.124	0.152	-0.002	0.154	0.045	0.493	0.750	2.177	1.860	1.778	0.013	0.113	-0.101
0.228	40.598	0.123	0.178	0.017	0.165	-0.005	0.450	0.737	2.100	1.844	1.786	0.017	0.112	-0.100
0.228	40.591	0.125	0.201	0.029	0.176	-0.063	0.407	0.784	1.992	1.853	1.787	0.022	0.114	-0.098
0.228	40.594	0.126	0.224	0.051	0.187	-0.100	0.401	0.890	1.940	1.848	1.782	0.024	0.113	-0.095
0.228	40.579	0.129	0.243	0.067	0.197	-0.100	0.384	0.926	1.964	1.850	1.781	0.028	0.112	-0.092
0.229	40.576	0.131	0.256	0.084	0.205	-0.084	0.363	0.910	2.042	1.852	1.775	0.031	0.109	-0.089
0.229	40.579	0.132	0.268	0.103	0.214	-0.052	0.346	0.889	2.121	1.846	1.778	0.035	0.109	-0.085
0.229	40.591	0.134	0.278	0.121	0.221	-0.010	0.380	0.813	2.130	1.862	1.775	0.036	0.107	-0.081
0.229	40.582	0.137	0.275	0.138	0.225	0.010	0.437	0.750	2.078	1.854	1.778	0.037	0.105	-0.078
0.229	40.585	0.138	0.270	0.151	0.228	0.001	0.505	0.707	1.993	1.853	1.778	0.040	0.105	-0.072
0.230	40.573	0.144	0.263	0.163	0.231	0.002	0.533	0.743	1.955	1.856	1.781	0.042	0.101	-0.065
0.230	40.588	0.151	0.252	0.171	0.233	0.035	0.504	0.811	1.937	1.856	1.777	0.042	0.100	-0.062
0.230	40.585	0.155	0.243	0.176	0.233	0.095	0.471	0.858	1.930	1.856	1.777	0.043	0.099	-0.058
0.230	40.579	0.162	0.233	0.177	0.234	0.191	0.411	0.875	1.965	1.856	1.778	0.042	0.099	-0.051
0.230	40.588	0.165	0.221	0.176	0.237	0.253	0.390	0.874	2.039	1.853	1.775	0.042	0.097	-0.046
0.231	40.601	0.169	0.210	0.168	0.239	0.291	0.413	0.859	2.169	1.858	1.780	0.041	0.096	-0.046
0.231	40.598	0.171	0.197	0.158	0.242	0.286	0.507	0.791	2.272	1.850	1.776	0.040	0.095	-0.041
0.231	40.598	0.173	0.185	0.145	0.247	0.218	0.601	0.753	2.323	1.845	1.776	0.039	0.094	-0.031
0.231	40.561	0.177	0.176	0.128	0.250	0.179	0.672	0.750	2.349	1.855	1.772	0.039	0.094	-0.029
0.231	40.591	0.182	0.168	0.109	0.254	0.177	0.688	0.816	2.347	1.851	1.772	0.035	0.092	-0.025
0.232	40.582	0.190	0.162	0.091	0.258	0.234	0.683	0.880	2.257	1.845	1.779	0.033	0.092	-0.023
0.232	40.585	0.195	0.155	0.066	0.264	0.308	0.651	0.882	2.233	1.854	1.776	0.032	0.093	-0.019
0.232	40.579	0.202	0.153	0.044	0.267	0.378	0.646	0.820	2.257	1.853	1.766	0.028	0.096	-0.018
0.232	40.594	0.205	0.150	0.020	0.271	0.380	0.691	0.751	2.255	1.851	1.777	0.027	0.093	-0.016
0.232	40.573	0.206	0.152	-0.003	0.273	0.331	0.724	0.687	2.222	1.858	1.777	0.024	0.096	-0.015
0.233	40.582	0.209	0.152	-0.025	0.275	0.283	0.788	0.731	2.255	1.854	1.778	0.021	0.097	-0.016
0.233	40.598	0.209	0.159	-0.046	0.276	0.259	0.789	0.819	2.308	1.856	1.771	0.021	0.097	-0.017
0.233	40.607	0.209	0.160	-0.064	0.274	0.268	0.760	0.906	2.369	1.854	1.770	0.022	0.097	-0.018
0.233	40.573	0.208	0.166	-0.078	0.268	0.304	0.719	0.983	2.420	1.855	1.771	0.016	0.099	-0.019
0.233	40.582	0.206	0.170	-0.093	0.261	0.360	0.694	1.057	2.444	1.855	1.775	0.014	0.102	-0.025
0.234	40.576	0.207	0.173	-0.106	0.250	0.363	0.693	1.150	2.447	1.855	1.764	0.014	0.101	-0.027
0.234	40.576	0.203	0.178	-0.114	0.235	0.374	0.728	1.204	2.449	1.854	1.768	0.011	0.103	-0.030
0.234	40.561	0.200	0.182	-0.120	0.221	0.357	0.776	1.197	2.452	1.849	1.771	0.010	0.106	-0.036
0.234	40.588	0.198	0.184	-0.126	0.203	0.312	0.816	1.139	2.465	1.851	1.774	0.007	0.104	-0.037
0.234	40.561	0.191	0.183	-0.129	0.184	0.328	0.814	1.132	2.464	1.848	1.771	0.005	0.106	-0.041
0.235	40.555	0.188	0.184	-0.129	0.163	0.371	0.810	1.077	2.395	1.852	1.767	0.002	0.108	-0.046
0.235	40.564	0.183	0.180	-0.128	0.144	0.441	0.778	1.032	2.341	1.853	1.768	-0.001	0.109	-0.051
0.235	40.546	0.183	0.177	-0.122	0.122	0.505	0.772	0.993	2.276	1.852	1.765	-0.002	0.108	-0.052
0.235	40.527	0.183	0.174	-0.118	0.101	0.492	0.814	1.008	2.305	1.849	1.768	-0.003	0.103	-0.059
0.235	40.543	0.184	0.168	-0.113	0.078	0.461	0.873	1.030	2.360	1.855	1.766	-0.005	0.106	-0.060
0.236	40.540	0.181	0.163	-0.107	0.059	0.408	0.926	1.068	2.433	1.860	1.764	-0.007	0.104	-0.065
0.236	40.546	0.179	0.157	-0.101	0.037	0.429	0.951	1.080	2.492	1.857	1.768	-0.007	0.099	-0.069
0.236	40.543	0.174	0.151	-0.096	0.018	0.487	0.887	1.039	2.536	1.860	1.768	-0.010	0.098	-0.071
0.236	40.549	0.168	0.146	-0.097	-0.001	0.568	0.781	1.013	2.569	1.848	1.766	-0.011	0.098	-0.074
0.236	40.530	0.162	0.143	-0.096	-0.019	0.629	0.714	0.969	2.496	1.858	1.766	-0.012	0.093	-0.076
0.237	40.530	0.155	0.139	-0.098	-0.033	0.604	0.658	0.954	2.404	1.850	1.770	-0.012	0.090	-0.079
0.237	40.546	0.152	0.136	-0.103	-0.047	0.553	0.719	0.928	2.340	1.862	1.772	-0.011	0.086	-0.079
0.237	40.518	0.152	0.130	-0.107	-0.059	0.475	0.813	0.889	2.331	1.849	1.770	-0.010	0.084	-0.080
0.237	40.543	0.148	0.129	-0.114	-0.070	0.404	0.893	0.877	2.322	1.852	1.775	-0.009	0.081	-0.083
0.237	40.543	0.151	0.124	-0.122	-0.080	0.385	0.899	0.857	2.345	1.855	1.768	-0.009	0.077	-0.081
0.238	40.527	0.150	0.120	-0.130	-0.084	0.410	0.804	0.893	2.395	1.858	1.766	-0.006	0.075	-0.078
0.238	40.521	0.151	0.117	-0.140	-0.090	0.486	0.678	0.965	2.403	1.858	1.769	-0.004	0.071	-0.079
0.238	40.540	0.149	0.113	-0.149	-0.094	0.572	0.551	1.064	2.367	1.858	1.770	-0.001	0.068	-0.079
0.238	40.530	0.146	0.108	-0.158	-0.098	0.603	0.500	1.147	2.395	1.858	1.766	0.003	0.066	-0.074
0.238	40.515	0.142	0.102	-0.170	-0.098	0.605	0.510	1.168	2.463	1.842	1.765	0.006	0.065	-0.070
0.239	40.527	0.138	0.098	-0.182	-0.095	0.547	0.593	1.163	2.571	1.855	1.761	0.009	0.063	-0.069
0.239	40.512	0.134	0.094	-0.193	-0.089	0.504	0.681	1.155	2.688	1.857	1.763	0.011	0.058	-0.065
0.239	40.521	0.129	0.091	-0.203	-0.081	0.497	0.736	1.181	2.710	1.851	1.769	0.015	0.057	-0.059
0.239	40.503	0.127	0.089	-0.214	-0.068	0.554	0.706	1.197	2.639	1.856	1.765	0.020	0.058	-0.057
0.239	40.521	0.126	0.087	-0.222	-0.056	0.634	0.660	1.191	2.471	1.859	1.770	0.019	0.056	-0.052
0.240	40.521	0.124	0.083	-0.228	-0.040	0.675	0.630	1.216	2.263	1.853	1.764	0.029	0.054	-0.048
0.240	40.512	0.124	0.078	-0.233	-0.024	0.705	0.641	1.219	2.183	1.859	1.761	0.026	0.053	-0.042
0.240	40.509	0.122	0.074	-0.235	-0.008	0.708	0.694	1.192	2.245	1.848	1.770	0.027	0.054	-0.037
0.240	40.527	0.123	0.071	-0.234	0.008	0.702	0.752	1.106	2.361	1.850	1.771	0.030	0.053	-0.032
0.240	40.524	0.121	0.069	-0.232	0.023	0.701	0.738	1.009	2.560	1.851	1.764	0.031	0.048	-0.027
0.241	40.515	0.121	0.066	-0.226	0.038	0.702	0.648	0.947	2.753	1.855	1.768	0.031	0.047	-0.023
0.241	40.527	0.120	0.063	-0.219	0.052	0.722	0.557	1.006	2.831	1.850	1.771	0.032	0.044	-0.018
0.241	40.500	0.119	0.059	-0.209	0.066	0.740	0.466	1.072	2.831	1.854	1.772	0.029	0.042	-0.007
0.241	40.515	0.117	0.055	-0.198	0.079	0.753	0.452	1.177	2.731	1.848	1.771	0.030	0.037	-0.003
0.241	40.521	0.114	0.051	-0.184	0.093	0.710	0.459	1.232	2.633	1.849	1.766	0.030	0.035	0.002
0.242	40.512	0.113	0.046	-0.169	0.103	0.639	0.521	1.207	2.559	1.859	1.771	0.026	0.029	0.008
0.242	40.509	0.114	0.040	-0.151	0.111	0.582	0.562	1.126	2.562	1.858	1.765	0.023	0.026	0.015
0.242	40.500	0.114	0.036	-0.137	0.117	0.603	0.583	1.054	2.609	1.853	1.764	0.018	0.022	0.021
0.242	40.491	0.117	0.029	-0.120	0.119	0.694	0.558	0.953	2.639	1.859	1.762	0.016	0.015	0.027
0.242	40.503	0.119	0.023	-0.105	0.118	0.820	0.510	0.930	2.616	1.855	1.770	0.012	0.010	0.032
0.243	40.500	0.118	0.018	-0.091	0.118	0.924	0.506	0.957	2.526	1.853	1.769	0.008	0.006	0.039
0.243	40.512	0.119	0.014	-0.077	0.113	0.947	0.516	1.072	2.338	1.852	1.780	0.004	-0.002	0.043
0.243	40.506	0.115	0.009	-0.065	0.106	0.904	0.582	1.193	2.233	1.852	1.775	0.001	-0.004	0.048
0.243	40.509	0.114	0.004	-0.056	0.105	0.840	0.656	1.188	2.230	1.858	1.776	-0.004	-0.008	0.049
0.243	40.521	0.111	-0.001	-0.047	0.101	0.778	0.717	1.123	2.345	1.853	1.772	-0.007	-0.014	0.053
0.244	40.479	0.109	-0.006	-0.039	0.093	0.754	0.708	1.040	2.512	1.857	1.776	-0.010	-0.017	0.060
0.244	40.463	0.111	-0.012	-0.032	0.090	0.784	0.662	0.945	2.644	1.854	1.771	-0.011	-0.019	0.059
0.244	40.466	0.113	-0.015	-0.029	0.089	0.898	0.627	0.861	2.651	1.849	1.776	-0.015	-0.025	0.060
0.244	40.488	0.113	-0.015	-0.027	0.089	1.018	0.581	0.834	2.623	1.857	1.778	-0.016	-0.029	0.061
0.244	40.469	0.111	-0.017	-0.029	0.090	1.134	0.590	0.858	2.509	1.855	1.776	-0.015	-0.027	0.061
0.245	40.469	0.110	-0.014	-0.022	0.094	1.237	0.630	0.904	2.392	1.859	1.771	-0.017	-0.029	0.058
0.245	40.506	0.104	-0.009	-0.021	0.099	1.294	0.702	0.887	2.367	1.850	1.782	-0.016	-0.028	0.055
0.245	40.475	0.095	-0.005	-0.023	0.103	1.325	0.781	0.788	2.444	1.854	1.773	-0.014	-0.027	0.054
0.245	40.475	0.090	0.003	-0.025	0.107	1.350	0.793	0.656	2.573	1.857	1.779	-0.006	-0.025	0.051
0.245	40.475	0.087	0.015	-0.026	0.112	1.387	0.738	0.551	2.689	1.851	1.780	-0.009	-0.026	0.050
0.246	40.482	0.086	0.024	-0.027	0.117	1.367	0.642	0.567	2.827	1.855	1.782	-0.006	-0.019	0.046
0.246	40.472	0.084	0.033	-0.030	0.118	1.314	0.583	0.643	2.851	1.857	1.781	-0.002	-0.010	0.042
0.246	40.482	0.084	0.044	-0.030	0.119	1.244	0.566	0.776	2.804	1.859	1.782	0.002	-0.010	0.038
0.246	40.488	0.083	0.050	-0.028	0.119	1.216	0.556	0.858	2.698	1.868	1.781	0.004	-0.004	0.038
0.246	40.494	0.080	0.060	-0.027	0.115	1.273	0.594	0.880	2.590	1.861	1.779	0.009	0.002	0.035
0.247	40.479	0.078	0.065	-0.025	0.113	1.396	0.616	0.803	2.595	1.863	1.786	0.009	0.008	0.039
0.247	40.506	0.071	0.072	-0.018	0.107	1.525	0.596	0.606	2.599	1.857	1.776	0.014	0.014	0.034
0.247	40.521	0.067	0.077	-0.013	0.097	1.625	0.534	0.463	2.665	1.853	1.778	0.014	0.020	0.032
0.247	40.491	0.065	0.081	-0.005	0.086	1.690	0.460	0.392	2.711	1.863	1.782	0.012	0.028	0.036
0.247	40.509	0.063	0.083	0.002	0.071	1.683	0.407	0.419	2.668	1.867	1.784	0.016	0.032	0.040
0.248	40.500	0.063	0.087	0.010	0.054	1.650	0.409	0.545	2.634	1.862	1.782	0.017	0.038	0.039
0.248	40.503	0.065	0.087	0.019	0.038	1.595	0.448	0.654	2.559	1.865	1.793	0.015	0.041	0.041
0.248	40.509	0.065	0.086	0.030	0.022	1.562	0.508	0.727	2.545	1.864	1.787	0.015	0.045	0.044
0.248	40.518	0.064	0.082	0.042	0.011	1.556	0.568	0.677	2.560	1.867	1.794	0.009	0.050	0.046
0.248	40.518	0.060	0.080	0.050	0.000	1.605	0.592	0.557	2.638	1.870	1.793	0.005	0.057	0.049
0.249	40.518	0.055	0.073	0.062	-0.007	1.686	0.602	0.439	2.703	1.873	1.795	0.004	0.057	0.052
0.249	40.540	0.049	0.067	0.070	-0.006	1.720	0.574	0.392	2.719	1.877	1.787	0.000	0.060	0.055
0.249	40.527	0.048	0.061	0.080	-0.003	1.716	0.567	0.446	2.658	1.871	1.794	-0.005	0.063	0.058
0.249	40.552	0.046	0.056	0.086	0.006	1.648	0.568	0.530	2.535	1.866	1.792	-0.006	0.066	0.058
0.249	40.564	0.050	0.050	0.091	0.020	1.556	0.581	0.611	2.395	1.866	1.787	-0.008	0.065	0.059
0.250	40.527	0.053	0.044	0.094	0.038	1.507	0.556	0.601	2.298	1.866	1.792	-0.012	0.066	0.059
0.250	40.543	0.053	0.042	0.094	0.065	1.466	0.528	0.512	2.250	1.865	1.794	-0.013	0.066	0.059
0.250	40.543	0.056	0.039	0.092	0.093	1.464	0.469	0.369	2.331	1.873	1.790	-0.012	0.067	0.061
0.250	40.540	0.055	0.038	0.091	0.123	1.454	0.437	0.271	2.487	1.880	1.792	-0.012	0.069	0.060
0.250	40.552	0.051	0.039	0.087	0.157	1.405	0.438	0.291	2.630	1.880	1.795	-0.009	0.070	0.057
0.251	40.536	0.047	0.038	0.083	0.194	1.393	0.458	0.371	2.750	1.881	1.785	-0.008	0.072	0.058
0.251	40.558	0.046	0.039	0.079	0.231	1.334	0.514	0.499	2.753	1.877	1.798	-0.005	0.072	0.055
0.251	40.555	0.047	0.044	0.076	0.267	1.301	0.560	0.691	2.635	1.874	1.791	-0.002	0.075	0.052
0.251	40.552	0.049	0.047	0.072	0.302	1.271	0.583	0.817	2.484	1.880	1.797	0.003	0.076	0.052
0.251	40.555	0.057	0.050	0.069	0.334	1.231	0.553	0.813	2.381	1.885	1.801	0.006	0.077	0.052
0.252	40.576	0.061	0.054	0.067	0.361	1.197	0.511	0.731	2.411	1.880	1.805	0.013	0.078	0.049
